"Time (s)","Linear Acceleration x (m/s^2)","Linear Acceleration y (m/s^2)","Linear Acceleration z (m/s^2)","Absolute acceleration (m/s^2)"
7.252608333E-2,-1.841536887E-3,-1.142233478E-2,8.665573597E-4,1.160223735E-2
8.257908333E-2,1.328836288E-2,-7.329831999E-3,8.946239948E-3,1.761653298E-2
9.263208334E-2,-1.391550987E-2,8.204411007E-3,2.286787570E-2,2.799809840E-2
1.026850833E-1,-2.164323576E-2,-1.120494626E-2,1.044312716E-2,2.651488978E-2
1.127380833E-1,-1.519276447E-2,-2.436807023E-2,-9.316368699E-3,3.018969468E-2
1.227910834E-1,-2.862022713E-2,-1.394071229E-2,1.478468478E-2,3.510053794E-2
1.328440833E-1,-7.987603788E-3,-2.549868420E-2,3.558615446E-3,2.695641768E-2
1.428960833E-1,-1.301868175E-2,-9.031444844E-3,1.912624240E-2,2.483679164E-2
1.529490833E-1,-1.464938455E-2,-3.967719544E-3,1.643184543E-2,2.236856746E-2
1.630020833E-1,-3.803361392E-3,-1.068193110E-2,2.317017674E-2,2.579585820E-2
1.730550833E-1,5.370616185E-3,2.603253499E-3,2.197325170E-2,2.276937059E-2
1.831080833E-1,5.161413773E-3,1.293214068E-2,1.284223974E-2,1.894211118E-2
1.931610833E-1,-1.492756355E-2,2.050271351E-3,4.113282323E-2,4.380576347E-2
2.032140833E-1,2.051186120E-3,1.936981548E-2,3.409569919E-2,3.926721049E-2
2.132670833E-1,1.205661721E-2,1.344896145E-3,2.870807469E-2,3.116607637E-2
2.233200833E-1,1.582257355E-2,-7.801464759E-4,3.514468968E-2,3.855011900E-2
2.333730833E-1,1.468260176E-2,3.948204461E-3,1.912448823E-2,2.443180638E-2
2.434260834E-1,-1.964783516E-3,6.651390530E-4,1.672654510E-2,1.685467576E-2
2.534790833E-1,-1.439975412E-2,-5.795833245E-3,4.450315833E-3,1.614775256E-2
2.635320833E-1,-1.989000639E-3,-1.061538247E-2,6.251842976E-3,1.247910290E-2
2.735850833E-1,-9.976483943E-3,-1.327736394E-2,1.643243015E-2,2.336329142E-2
2.836370833E-1,-3.750901475E-3,-1.304988898E-3,1.374095678E-2,1.430336154E-2
2.936900833E-1,-1.055336202E-2,4.880835358E-3,8.350993395E-3,1.431555428E-2
3.037430833E-1,-1.974015436E-2,-1.544753976E-2,2.077749610E-2,3.255771065E-2
3.137960833E-1,-1.539077837E-2,1.181503013E-4,2.437236428E-2,2.882537353E-2
3.238490833E-1,-4.340582896E-3,-5.423292518E-5,-3.020671606E-3,5.288483529E-3
3.339020833E-1,2.770413060E-3,-4.429521672E-3,1.434380472E-2,1.526566686E-2
3.439550833E-1,2.554714757E-3,-2.540140115E-3,9.851973653E-3,1.049000782E-2
3.540080833E-1,1.231513609E-2,-9.277210627E-3,5.658350587E-3,1.642395035E-2
3.640610834E-1,5.749242813E-3,-9.482539259E-4,2.197266698E-2,2.273215944E-2
3.741140833E-1,1.192637048E-2,9.563303925E-4,2.691297948E-2,2.945269674E-2
3.841670833E-1,1.545420239E-2,-4.766869470E-3,3.304846287E-2,3.679342759E-2
3.942200833E-1,-6.922589417E-3,1.011749206E-2,9.546164274E-3,1.553753977E-2
4.042720833E-1,-8.566012474E-4,6.182480380E-3,1.463148773E-2,1.590714501E-2
4.143250833E-1,-5.698184744E-3,4.430471845E-3,1.897187591E-2,2.029853358E-2
4.243780833E-1,-3.329380610E-3,8.438628539E-4,1.657393277E-2,1.692607831E-2
4.344310833E-1,7.733695301E-3,-4.544766638E-3,2.405836880E-2,2.567625472E-2
4.444840833E-1,-9.455230364E-3,-1.179158645E-2,2.016763151E-2,2.520270328E-2
4.545370833E-1,-1.066587980E-2,-3.079289943E-3,1.672654510E-2,2.007536623E-2
4.645900833E-1,-1.458278225E-2,-6.262897868E-3,1.597634733E-2,2.251943831E-2
4.746430833E-1,-1.586659098E-2,-1.199355293E-2,2.361164153E-2,3.087237660E-2
4.846960834E-1,-5.553050456E-4,4.754517227E-5,8.943316340E-3,8.960665790E-3
4.947490833E-1,-7.279123391E-3,-1.621103995E-3,1.702650726E-2,1.858804898E-2
5.048020833E-1,-6.728679986E-3,-7.991426177E-3,1.088868499E-2,1.508978090E-2
5.148550833E-1,9.833977476E-3,-4.670152869E-3,2.944950163E-2,3.139730223E-2
5.249080833E-1,-9.022137835E-3,-5.375856981E-3,2.840109587E-2,3.028070435E-2
5.349600833E-1,4.044627846E-3,-1.372454803E-2,3.289351165E-2,3.587067524E-2
5.450130833E-1,6.885446464E-3,-8.760335036E-3,2.390926480E-2,2.637813084E-2
5.550660833E-1,5.197227540E-4,-7.667910699E-3,1.133482754E-2,1.369471729E-2
5.651190833E-1,4.429934518E-3,-5.943548530E-3,2.331109464E-2,2.446134139E-2
5.751720833E-1,-1.714547640E-2,-6.723950822E-3,1.403097868E-2,2.315269397E-2
5.852250833E-1,-1.465046377E-2,-5.031748340E-3,3.019619107E-2,3.393765660E-2
5.952780833E-1,-8.045202289E-3,-2.070879132E-2,7.891986966E-3,2.357674227E-2
6.053310834E-1,6.407811743E-3,-1.159956023E-2,1.806906581E-2,2.240761005E-2
6.153840833E-1,-1.354870901E-2,-1.614178699E-3,7.738789916E-3,1.568636217E-2
6.254370833E-1,-1.878004840E-2,-9.169804584E-3,1.522439539E-2,2.585648370E-2
6.354900833E-1,-6.638082975E-3,-8.109722659E-3,3.049206018E-2,3.224278960E-2
6.455430833E-1,3.946092555E-3,7.948942501E-3,3.588026941E-2,3.696148084E-2
6.555960833E-1,1.702019295E-2,1.197237505E-2,2.764563560E-2,3.460210832E-2
6.656490833E-1,-1.885256387E-3,5.134750698E-3,2.883963704E-2,2.935378206E-2
6.757010833E-1,1.767658059E-2,1.137265172E-3,1.925663531E-2,2.616434362E-2
6.857540833E-1,5.942005642E-3,-4.349981267E-3,2.000390947E-2,2.131633557E-2
6.958074166E-1,1.444488103E-3,7.334126048E-3,2.539270341E-2,2.647008382E-2
7.058604166E-1,1.449277967E-2,5.316069201E-3,2.554122269E-2,2.984384879E-2
7.159134166E-1,9.649293398E-3,1.312025657E-2,1.610790968E-2,2.290665296E-2
7.259664166E-1,1.350326061E-2,1.535022017E-3,3.960786939E-2,4.187454665E-2
7.360194167E-1,1.018484696E-2,-3.696481828E-3,2.313918650E-2,2.555028449E-2
7.460724167E-1,-1.296129710E-3,-7.243147027E-3,3.017397165E-2,3.105819854E-2
7.561254167E-1,-2.560087800E-2,-1.673125941E-3,1.251011789E-2,2.854307892E-2
7.661784167E-1,-8.946737875E-3,-4.935963638E-4,1.804918528E-2,2.015095147E-2
7.762314167E-1,-9.473422970E-3,1.888815109E-3,2.523424387E-2,2.702000054E-2
7.862844167E-1,-2.466785538E-4,-6.277168728E-4,3.062245309E-2,3.062987940E-2
7.963374167E-1,-8.601636235E-3,8.968167007E-5,1.984544992E-2,2.162956475E-2
8.063904166E-1,-5.376221861E-3,-2.832902893E-3,2.373618722E-2,2.450174859E-2
8.164424166E-1,-3.242949455E-3,-3.446915355E-3,2.658027291E-2,2.699831207E-2
8.264954166E-1,-1.896253292E-2,-9.212507531E-3,1.310711861E-2,2.482427256E-2
8.365484166E-1,7.159791085E-3,2.120163850E-3,1.594711125E-2,1.760874954E-2
8.466014166E-1,-3.061068786E-3,7.408257779E-3,1.774279118E-2,1.946943924E-2
8.566544167E-1,1.955959017E-3,1.123407271E-2,2.388119817E-2,2.646397157E-2
8.667074167E-1,1.076684392E-3,6.478879396E-3,2.298248112E-2,2.390250125E-2
8.767604167E-1,3.353045845E-3,-1.151457461E-2,3.151298404E-2,3.371789596E-2
8.868134167E-1,7.437723977E-4,-5.386327151E-3,2.013430238E-2,2.085559517E-2
8.968664167E-1,-2.172495146E-3,-1.726152878E-3,1.654060364E-2,1.677172942E-2
9.069194167E-1,1.814590445E-3,-4.014296271E-3,1.564071715E-2,1.624928755E-2
9.169724167E-1,-1.054551053E-2,-1.366280509E-2,1.968348205E-2,2.617860770E-2
9.270254166E-1,-6.495481720E-3,-9.775210675E-3,3.300577819E-2,3.503037854E-2
9.370784166E-1,-1.160071597E-2,-1.030372588E-2,1.594243348E-2,2.224645057E-2
9.471304166E-1,-1.352012846E-2,-5.135043059E-3,1.085418642E-2,1.808247504E-2
9.571834166E-1,4.568889829E-3,-4.503635131E-3,7.410761118E-3,9.801880636E-3
9.672364166E-1,-2.408725085E-3,-7.973847985E-3,1.369593322E-2,1.603005911E-2
9.772894167E-1,-6.961332360E-3,-1.035212986E-3,2.237670958E-2,2.345738574E-2
9.873424167E-1,8.108930087E-3,-3.383600973E-3,2.417005062E-2,2.571759806E-2
9.973954167E-1,-7.506967801E-3,8.238288313E-3,8.151603341E-3,1.380842485E-2
1.007448417E0,-2.643430837E-3,3.008045275E-3,4.931366265E-2,4.947598798E-2
1.017501417E0,2.123135852E-3,1.261235280E-2,2.536054373E-2,2.840310418E-2
1.027554417E0,5.258355355E-3,1.524168123E-3,7.542908192E-3,9.320346211E-3
1.037607417E0,-3.918577522E-3,6.979784779E-3,3.717776656E-2,3.802971170E-2
1.047660417E0,5.347227323E-3,2.773718107E-3,3.448161542E-2,3.500383057E-2
1.057713417E0,6.421063909E-3,-6.816062741E-3,1.516943157E-2,1.782695788E-2
1.067766417E0,-1.591488532E-2,-4.718173128E-3,2.489685953E-2,2.992320750E-2
1.077819417E0,-2.136331630E-2,-1.151832048E-2,1.456658363E-2,2.830633054E-2
1.087871417E0,-5.472436538E-3,-1.179419942E-3,2.669137001E-2,2.727210711E-2
1.097924417E0,-1.357056526E-3,-4.672820661E-3,1.336731970E-2,1.422540303E-2
1.107977417E0,-3.499012676E-3,-1.412868200E-2,3.671700597E-2,3.949685142E-2
1.118030417E0,1.404466596E-2,-1.036552364E-2,4.614447176E-2,4.933567671E-2
1.128083417E0,1.208145074E-2,-6.623908617E-3,2.039567292E-2,2.461343314E-2
1.138136417E0,9.448914914E-3,9.499240369E-3,1.231072783E-2,1.819537250E-2
1.148189417E0,-1.001197723E-2,-7.314282060E-3,9.764850140E-3,1.578260778E-2
1.158242417E0,-2.209276787E-3,-7.562441546E-3,4.254551053E-2,4.326883281E-2
1.168295417E0,5.792766312E-4,1.361284794E-2,1.664877713E-2,2.151341373E-2
1.178348417E0,-1.220052838E-2,1.206278762E-2,2.697320580E-2,3.196744546E-2
1.188401417E0,-2.514977216E-2,-3.935176134E-3,2.202821553E-2,3.366361434E-2
1.198454417E0,-7.438136251E-3,7.182573527E-4,2.052898943E-2,2.184676570E-2
1.208507417E0,-1.236157577E-2,-6.331273746E-3,1.274517596E-2,1.885028098E-2
1.218560417E0,-2.813178248E-3,-1.981449623E-2,-4.166725874E-3,2.044235400E-2
1.228612417E0,4.811346568E-3,-1.406072639E-4,1.903385639E-2,1.963304651E-2
1.238665417E0,-4.220952518E-3,-1.055215945E-2,8.706504107E-3,1.431669386E-2
1.248718417E0,-1.502578307E-2,-1.289519358E-2,1.424674094E-2,2.439323270E-2
1.258771417E0,-9.491937630E-3,-1.137422316E-2,8.710012436E-3,1.718528874E-2
1.268824417E0,1.206915332E-2,2.478671260E-3,2.412912011E-2,2.709285349E-2
1.278877417E0,1.560476391E-3,-3.793600425E-3,3.161589503E-2,3.188089255E-2
1.288930417E0,1.185821958E-2,-6.150722690E-3,5.574150681E-3,1.447480283E-2
1.298983417E0,8.218397502E-3,4.650071338E-3,1.620380402E-2,1.875442576E-2
1.309036417E0,-1.233493268E-3,3.367155679E-3,3.931083083E-3,5.320963936E-3
1.319089417E0,-1.310193263E-2,1.008556992E-2,1.336381137E-2,2.125960521E-2
1.329142417E0,-7.236937786E-3,1.136859521E-2,2.878525794E-2,3.178378989E-2
1.339195417E0,5.444093531E-3,6.161540039E-3,2.893670082E-2,3.008214395E-2
1.349248417E0,-1.572240572E-2,2.102841474E-2,2.833970010E-2,3.863323530E-2
1.359300417E0,-1.096763496E-2,1.007511802E-2,4.884530067E-2,5.106525646E-2
1.369353417E0,-9.760862156E-3,3.219632255E-2,5.722786903E-2,6.638453592E-2
1.379406417E0,-1.591963961E-2,8.574320488E-3,2.848997355E-2,3.374362888E-2
1.389459417E0,4.072956863E-3,1.404393392E-2,2.444954753E-2,2.848861934E-2
1.399512417E0,4.898680215E-3,4.669129606E-3,2.025709391E-2,2.135761440E-2
1.409565417E0,-1.040828597E-2,-4.623905048E-3,2.295149088E-2,2.562194076E-2
1.419618417E0,-8.502131357E-3,-4.073535874E-3,1.576526284E-2,1.836908938E-2
1.429671417E0,-7.167431580E-4,-2.127332171E-2,7.384448647E-3,2.252993607E-2
1.439724417E0,5.424873093E-3,-5.259241574E-3,9.478336573E-4,7.614936549E-3
1.449777417E0,5.292799681E-3,-1.312394762E-2,9.930911064E-3,1.728799364E-2
1.459830417E0,4.434927206E-3,-1.326236218E-2,1.412394941E-2,1.987573337E-2
1.469883417E0,1.678992343E-2,-9.839237686E-3,7.989635468E-3,2.103678687E-2
1.479936417E0,3.037347591E-2,-9.626435582E-3,1.921745896E-2,3.720923313E-2
1.489988417E0,1.087949618E-2,-1.014199555E-3,3.732862473E-2,3.889496448E-2
1.500041417E0,-3.825591090E-3,7.152222823E-3,4.211983323E-2,4.289370338E-2
1.510094417E0,-2.079702489E-2,4.348592553E-3,4.092173874E-2,4.610873240E-2
1.520147417E0,-1.234674303E-2,1.371259779E-2,3.628255785E-2,4.070505381E-2
1.530200417E0,-2.647905441E-2,1.718748841E-2,2.745033860E-2,4.183385196E-2
1.540253417E0,3.625566351E-4,1.023240812E-2,3.208718061E-2,3.368116362E-2
1.550306417E0,-9.590179418E-3,1.752251560E-2,2.999212325E-2,3.603522653E-2
1.560359417E0,-7.279941659E-3,4.050348010E-3,2.819585860E-2,2.940083862E-2
1.570412417E0,-6.881584675E-3,-1.313887630E-3,9.933249950E-3,1.215532652E-2
1.580465417E0,-2.049891967E-2,-3.634921610E-3,1.607399583E-2,2.630193348E-2
1.590518417E0,4.073116748E-3,-9.425839540E-3,1.712357104E-2,1.996630702E-2
1.600571417E0,1.603517351E-2,-1.295626044E-2,1.099042654E-2,2.336195518E-2
1.610624417E0,1.741822959E-2,-1.237760536E-2,2.131894827E-2,3.018438987E-2
1.620677417E0,1.989040268E-2,1.230747532E-3,2.266439259E-2,3.017975397E-2
1.630729417E0,3.171379021E-3,-8.449610341E-3,3.179423511E-2,3.305036983E-2
1.640782417E0,2.276374444E-3,1.935209110E-3,3.209302783E-2,3.223180650E-2
1.650835417E0,5.334208703E-3,7.461887710E-3,2.625516772E-2,2.781128157E-2
1.660888417E0,-8.695317880E-3,4.524867833E-3,3.254384816E-2,3.398801310E-2
1.670941417E0,2.154671559E-3,1.625493061E-2,3.523473680E-2,3.886324814E-2
1.680994417E0,-6.376533136E-3,1.219780348E-2,3.538442552E-2,3.796714572E-2
1.691047417E0,-3.525800803E-3,-3.679195996E-3,1.831815720E-2,1.901374865E-2
1.701100542E0,9.126255961E-3,3.352354914E-3,1.457593918E-2,1.752098269E-2
1.711153542E0,-8.456848555E-3,-6.543436311E-3,8.885428905E-3,1.390272251E-2
1.721206542E0,-7.030529361E-3,5.633499920E-3,2.235449016E-2,2.410161602E-2
1.731259542E0,1.602898826E-3,-4.757806286E-3,2.055647135E-2,2.116068334E-2
1.741312542E0,1.034642197E-2,-1.342420215E-2,7.683241367E-3,1.860886479E-2
1.751365542E0,1.491933519E-2,-5.010314640E-3,1.187627971E-2,1.971638494E-2
1.761417542E0,2.403536823E-2,8.107858859E-3,3.045814633E-3,2.554825411E-2
1.771470542E0,1.622610452E-2,-1.278287223E-2,1.906367719E-2,2.810893236E-2
1.781523542E0,1.391491716E-2,-3.206850607E-3,9.184221625E-3,1.697818416E-2
1.791576542E0,1.150315084E-2,-4.036515690E-3,7.833514810E-3,1.449068295E-2
1.801629542E0,-5.843561714E-3,1.200860951E-2,1.816612959E-2,2.254688848E-2
1.811682542E0,1.491310082E-3,1.568957794E-2,3.119021773E-2,3.494590883E-2
1.821735542E0,1.293150571E-3,-3.998399153E-4,3.163577557E-2,3.166471863E-2
1.831788542E0,-2.463633409E-2,5.790790021E-3,3.283211589E-2,4.145395084E-2
1.841841542E0,-1.281757751E-2,3.887831960E-3,1.980861247E-2,2.391206094E-2
1.851894542E0,-7.567689194E-3,1.118837306E-2,2.354907632E-2,2.714790244E-2
1.861947542E0,-7.921981355E-3,1.342115063E-2,2.983600259E-2,3.366113669E-2
1.872000542E0,-7.959265349E-3,2.890918236E-3,1.591144323E-2,1.802446501E-2
1.882053542E0,-2.499720323E-2,-3.899014760E-3,3.485525250E-3,2.553842931E-2
1.892105542E0,-8.796216612E-3,1.441336831E-2,1.156813145E-2,2.046803063E-2
1.902158542E0,-1.160663742E-4,3.721113224E-3,6.926026940E-3,7.863205721E-3
1.912211542E0,-3.315448933E-3,-5.759141967E-4,2.159727573E-2,2.185786353E-2
1.922264542E0,1.043303957E-2,-2.749214619E-3,2.998101354E-2,3.186326519E-2
1.932317542E0,1.288949940E-2,-8.688304648E-3,2.653758824E-2,3.075499020E-2
1.942370542E0,1.663900588E-3,-3.284764756E-3,8.427591920E-3,9.196877200E-3
1.952423542E0,1.097055286E-2,-4.160293937E-3,1.381580114E-2,1.812560170E-2
1.962476542E0,4.284688025E-3,9.056606144E-4,2.624054968E-2,2.660348136E-2
1.972529542E0,1.343720421E-3,-1.263345759E-3,2.459280431E-2,2.466186633E-2
1.982582542E0,6.410115226E-3,5.655591432E-3,2.130140662E-2,2.295267339E-2
1.992635542E0,8.071993272E-3,5.596772097E-3,6.184015274E-3,1.160702280E-2
2.002688542E0,-2.038106687E-3,1.503646223E-2,2.100261390E-2,2.591059370E-2
2.012741542E0,-7.176925025E-3,2.560641915E-3,1.636343300E-2,1.805068086E-2
2.022794542E0,-1.430110405E-2,6.578044519E-3,1.636343300E-2,2.270581834E-2
2.032846542E0,-1.339789767E-2,1.217845285E-2,1.995771646E-2,2.694677759E-2
2.042899542E0,1.158937557E-2,1.100208443E-3,1.995537758E-2,2.310283920E-2
2.052952542E0,7.759019912E-3,-3.600660581E-3,2.190191567E-2,2.351299761E-2
2.063005542E0,4.442894323E-3,1.037053032E-2,3.403079510E-2,3.585222760E-2
2.073058542E0,-6.961490532E-3,-8.538506292E-3,2.280472577E-2,2.532634907E-2
2.083111542E0,-4.857170123E-3,-1.785703115E-2,2.774503827E-2,3.335045445E-2
2.093164542E0,1.536938579E-2,-1.628897237E-2,3.253390789E-2,3.949688346E-2
2.103217542E0,-3.912122459E-3,1.223200969E-3,3.148667157E-2,3.175234494E-2
2.113270542E0,7.737794062E-3,-6.241939254E-3,2.385430098E-2,2.584304428E-2
2.123323542E0,2.768120426E-3,-1.207886746E-2,1.831815720E-2,2.211597642E-2
2.133376542E0,-4.689892647E-3,2.126138974E-3,9.187729955E-3,1.053232841E-2
2.143429542E0,-4.406259576E-4,-2.673639357E-4,1.098399460E-2,1.099607985E-2
2.153482542E0,-1.368945675E-3,-5.670246016E-3,2.235799849E-2,2.310640168E-2
2.163534542E0,-5.124930345E-3,4.559804946E-3,1.247795820E-2,1.423924763E-2
2.173587542E0,-2.222965667E-2,1.691307127E-2,2.070908368E-2,3.477176674E-2
2.183640542E0,-7.718242435E-3,2.784725491E-2,3.552826703E-2,4.579627310E-2
2.193693542E0,1.718350043E-2,1.573734239E-2,2.340348065E-2,3.302513496E-2
2.203746542E0,-1.926449250E-2,4.380478151E-4,1.486946940E-2,2.433954966E-2
2.213799542E0,-1.773718836E-2,-8.011416346E-4,2.759125650E-2,3.281047263E-2
2.223852542E0,2.382383207E-3,-1.465293970E-2,2.205160439E-2,2.658303308E-2
2.233905542E0,2.532903043E-3,-6.365059689E-4,5.733779669E-3,6.300552910E-3
2.243958542E0,1.180852738E-2,-2.356908476E-2,-5.639639497E-3,2.695827534E-2
2.254011542E0,-5.012957878E-3,-7.849430200E-3,1.396958292E-2,1.678965598E-2
2.264064542E0,-2.673780969E-3,-1.783033496E-2,2.010857463E-2,2.700786410E-2
2.274117542E0,-7.507396635E-3,-1.005790528E-2,1.816262126E-2,2.207721164E-2
2.284170542E0,4.444529145E-4,-7.385965269E-3,1.516943157E-2,1.687784570E-2
2.294222542E0,1.124667677E-3,6.316820160E-4,2.864492476E-2,2.867395358E-2
2.304275542E0,6.594480677E-3,3.225780968E-3,1.756912887E-2,1.904119554E-2
2.314328542E0,9.067279596E-3,2.543100268E-3,1.682010055E-2,1.927689551E-2
2.324381542E0,-6.509968996E-3,1.132804843E-2,3.417989910E-2,3.659193736E-2
2.334434542E0,-1.255376644E-2,1.356367651E-2,3.582647502E-2,4.031261198E-2
2.344487542E0,-8.977452888E-3,7.920199782E-3,1.052615762E-2,1.594127407E-2
2.354540542E0,-4.875262231E-3,1.283657525E-2,1.112491250E-2,1.767228123E-2
2.364593542E0,-1.578430741E-2,1.403762989E-2,1.681308389E-2,2.699776292E-2
2.374646542E0,-8.717022242E-3,1.472895350E-3,2.429751992E-2,2.585585759E-2
2.384699542E0,3.495253955E-3,3.890225664E-3,1.097463906E-2,1.215702918E-2
2.394752542E0,7.852510266E-3,4.254616834E-3,1.740774572E-2,1.956510396E-2
2.404805542E0,-5.823877610E-3,-1.843956001E-3,1.531151891E-2,1.648515500E-2
2.414858542E0,7.317604237E-3,1.794547029E-3,3.087856114E-2,3.178448157E-2
2.424911542E0,5.879016740E-3,-5.642526560E-3,3.102766514E-2,3.207985268E-2
2.434963542E0,-4.644097642E-3,1.356157517E-2,1.530976474E-2,2.097314618E-2
2.445016542E0,3.216165324E-3,1.312891776E-2,6.028479338E-3,1.480049878E-2
2.455069542E0,-5.248321441E-3,8.831780702E-3,1.845205843E-2,2.111927292E-2
2.465122542E0,-1.971467329E-2,3.276925832E-3,3.932252526E-3,2.036833807E-2
2.475175542E0,-6.821823162E-3,5.381448381E-3,2.833151400E-2,2.963396604E-2
2.485228542E0,-9.802081600E-3,9.106124751E-4,2.339178622E-2,2.537884318E-2
2.495281542E0,-1.207233845E-2,6.354169250E-3,3.012894809E-2,3.307371064E-2
2.505334542E0,1.424272383E-4,9.303102829E-3,2.054945469E-2,2.255766158E-2
2.515387542E0,4.917567750E-3,1.316372696E-2,1.755626500E-2,2.248752145E-2
2.525440542E0,-5.953905068E-3,1.626900047E-2,3.192696691E-2,3.632437994E-2
2.535493542E0,-8.337038878E-4,7.024150528E-4,1.620965123E-2,1.624626856E-2
2.545546542E0,4.240307715E-3,-1.488750441E-2,1.606054723E-2,2.230603449E-2
2.555599542E0,1.928457689E-4,-7.079132628E-3,1.546120763E-2,1.700588867E-2
2.565651542E0,8.127799920E-3,1.496101487E-3,8.275564313E-3,1.169548699E-2
2.575704542E0,2.481281380E-3,2.316612024E-3,1.111848056E-2,1.162514768E-2
2.585757542E0,-6.480977313E-3,-7.548590954E-3,2.024890780E-2,2.256108507E-2
2.595810542E0,-6.180767328E-3,-1.893869296E-2,1.965073764E-2,2.798262793E-2
2.605863542E0,9.548928568E-3,-5.293539148E-3,1.306384921E-2,1.702550292E-2
2.615916542E0,-4.815183232E-3,2.864697129E-3,2.054945469E-2,2.129959078E-2
2.625969542E0,-4.163059373E-3,-3.099609017E-3,2.489042759E-2,2.542581415E-2
2.636022542E0,-5.009149194E-3,1.112092908E-2,2.069914341E-2,2.402542772E-2
2.646075542E0,4.128208483E-3,1.202271592E-2,1.007124424E-2,1.621782241E-2
2.656128542E0,-4.490469474E-3,-5.132539719E-3,2.473956943E-2,2.566229872E-2
2.666181542E0,1.396045920E-2,1.102368258E-2,2.907820344E-2,3.408750378E-2
2.676234542E0,9.211754359E-4,6.444545276E-3,2.503309965E-2,2.586574581E-2
2.686287542E0,9.521728166E-3,-3.714352380E-3,1.665053129E-2,1.953714189E-2
2.696340542E0,1.434190095E-2,6.614881977E-3,2.772749662E-2,3.191019986E-2
2.706391542E0,4.458522492E-3,3.275628481E-3,2.428524077E-2,2.490745037E-2
2.716444542E0,1.883946759E-3,-7.888515182E-3,4.377810359E-3,9.216460856E-3
2.726497542E0,3.788911803E-3,8.045403287E-5,2.369174838E-2,2.399294202E-2
2.736550542E0,-1.696085742E-2,3.261522073E-3,1.426077425E-2,2.239816718E-2
2.746603542E0,-2.162850952E-3,-2.864094134E-3,3.207607090E-2,3.227623405E-2
2.756656542E0,-6.083313544E-3,-1.481720991E-3,2.923373938E-2,2.989671752E-2
2.766709542E0,-2.526573318E-3,-2.090708502E-3,2.040268958E-2,2.066456815E-2
2.776762542E0,-1.627708807E-3,-2.726648021E-3,1.142428994E-2,1.185742156E-2
2.786815542E0,2.528186727E-3,-9.511720520E-3,1.741242349E-2,2.000142613E-2
2.796868542E0,-4.009209936E-4,-1.672340222E-3,1.830763221E-2,1.838822603E-2
2.806921542E0,-4.299918766E-3,-9.247718733E-3,2.115288734E-2,2.348306296E-2
2.816974542E0,-3.565901625E-3,-1.091565527E-2,2.594117224E-2,2.836920164E-2
2.827027542E0,1.528320845E-3,-6.372971702E-3,1.591319740E-2,1.720989205E-2
2.837079542E0,3.314091054E-3,6.994037367E-3,1.755918860E-2,1.918918609E-2
2.847132542E0,4.848257687E-3,1.536542293E-2,2.040327430E-2,2.599798889E-2
2.857185542E0,1.024415280E-2,1.618715772E-2,2.594292641E-2,3.224906467E-2
2.867238542E0,5.196746601E-3,1.104264949E-3,2.983424842E-2,3.030359641E-2
2.877291542E0,7.534256140E-3,1.353434907E-2,2.713985145E-2,3.124924251E-2
2.887344542E0,-2.224364203E-3,7.073705681E-3,1.815677404E-2,1.961258657E-2
2.897397542E0,2.297958607E-5,-8.621153031E-3,2.623938024E-2,2.761937514E-2
2.907450542E0,6.469683736E-3,2.937001605E-3,1.725513339E-2,1.866071849E-2
2.917503542E0,3.370566650E-3,1.204919284E-2,2.788127840E-2,3.055993214E-2
2.927556542E0,-4.861594364E-3,-3.267259654E-3,1.680489779E-2,1.779647929E-2
2.937609542E0,-7.504576952E-3,3.921106271E-4,1.231306672E-2,1.442511830E-2
2.947662542E0,8.260615655E-3,2.750201337E-3,1.470867097E-2,1.709229008E-2
2.957715542E0,-9.848078745E-4,-7.018157132E-3,1.082027256E-2,1.293455351E-2
2.967768542E0,2.769179092E-3,1.374380730E-2,2.653583407E-2,3.001184903E-2
2.977820542E0,1.344474163E-2,8.668478932E-3,3.031781316E-3,1.628174753E-2
2.987873542E0,2.849902988E-2,-3.233985342E-3,2.548625886E-2,3.836929444E-2
2.997926542E0,1.170865420E-2,1.815734049E-2,1.291299105E-2,2.516996096E-2
3.007979542E0,1.388180502E-2,6.794099137E-3,2.354030550E-2,2.816043814E-2
3.018032542E0,5.251922847E-3,5.464387480E-3,1.934902132E-2,2.078044393E-2
3.028085542E0,-2.726618043E-3,9.572074749E-3,1.830236971E-2,2.083352582E-2
3.038138542E0,4.510471919E-3,-7.712660171E-4,8.273810148E-3,9.454900453E-3
3.048191542E0,-6.272195740E-3,9.472087361E-3,1.665754795E-2,2.016270771E-2
3.058244542E0,-2.529952883E-3,-8.043740485E-3,3.147673130E-2,3.258660823E-2
3.068297542E0,-1.824785528E-3,-8.343995009E-3,1.590910435E-2,1.805690162E-2
3.078350542E0,-2.443960269E-2,-3.956810832E-3,9.773620963E-3,2.661717864E-2
3.088403542E0,-9.805036043E-3,-3.889640942E-3,1.052557290E-2,1.490153426E-2
3.098456542E0,-5.016526735E-3,2.889730521E-3,1.920693398E-2,2.006046848E-2
3.108508542E0,-9.246621238E-3,9.330146201E-4,1.756035805E-2,1.986798166E-2
3.118561542E0,-6.284690166E-3,6.326066069E-3,2.729012489E-2,2.871005676E-2
3.128614542E0,1.011928848E-2,1.597481243E-2,1.037413001E-2,2.156889439E-2
3.138667542E0,5.627511092E-3,5.810067561E-3,6.631911993E-3,1.045982901E-2
3.148720542E0,8.786900467E-4,1.156296032E-2,1.366611242E-2,1.792307943E-2
3.158773542E0,1.045028543E-2,1.396865102E-2,1.217156410E-2,2.127154553E-2
3.168826542E0,1.649313498E-2,8.189573698E-4,2.773860633E-2,3.228195276E-2
3.178879542E0,-3.514154908E-3,-7.818366867E-3,2.190250039E-2,2.352011200E-2
3.188932542E0,-4.691371581E-3,2.721714433E-3,1.876020670E-2,1.952849334E-2
3.198985542E0,-4.804362457E-3,1.434451735E-2,1.352227092E-2,2.029036440E-2
3.209038542E0,-4.095920032E-3,2.695913594E-3,3.118495524E-2,3.156811594E-2
3.219091542E0,-3.295109302E-3,1.594102649E-2,2.115464151E-2,2.669256316E-2
3.229144542E0,-1.303708221E-2,-9.331790730E-5,3.268125772E-2,3.518577592E-2
3.239197542E0,1.087336574E-2,-4.970261212E-3,1.906075358E-2,2.249990903E-2
3.249249542E0,-2.439105196E-3,-8.581337146E-4,2.175398111E-2,2.190710665E-2
3.259302542E0,2.696162272E-3,-6.750811469E-3,2.908697426E-2,2.998157465E-2
3.269355542E0,3.637211960E-3,-7.322577797E-3,2.534475625E-2,2.663092423E-2
3.279408542E0,-5.344053609E-3,5.333757028E-3,8.430515528E-3,1.131730821E-2
3.289461542E0,-7.900826026E-4,6.192311011E-3,1.291942298E-2,1.434853430E-2
3.299514542E0,1.008997589E-2,-8.701168522E-3,1.097463906E-2,1.726153671E-2
3.309567542E0,-2.702769797E-3,7.113612927E-3,9.778298736E-3,1.239046325E-2
3.319620542E0,1.648395188E-4,6.331328563E-3,2.220070839E-2,2.308645374E-2
3.329673542E0,9.781097862E-3,-1.124182027E-3,2.459514320E-2,2.649254102E-2
3.339726542E0,-2.515211219E-3,2.514229640E-3,2.085234046E-2,2.115343331E-2
3.349779542E0,6.890278982E-3,-2.035963945E-3,2.040152013E-2,2.162968140E-2
3.359832542E0,-1.665491156E-3,-1.922637597E-3,1.875552893E-2,1.892723597E-2
3.369885542E0,-1.765684167E-2,-2.755317651E-3,2.893553138E-2,3.400912832E-2
3.379937542E0,-4.552355742E-4,-1.440936662E-3,7.977356315E-3,8.119221124E-3
3.389990542E0,-2.930899944E-2,-1.325064948E-2,1.636226356E-2,3.608768250E-2
3.400043542E0,-7.794832395E-3,7.882686239E-3,9.026931524E-3,1.429621094E-2
3.410096542E0,8.896169167E-3,-2.421496455E-3,1.695984900E-2,1.930393610E-2
3.420149542E0,-2.307824641E-3,-7.167443857E-3,2.579089880E-2,2.686761558E-2
3.430202542E0,-7.825277887E-3,8.269406464E-3,2.968280554E-2,3.179130387E-2
3.440255542E0,-1.009151421E-2,1.158792062E-2,2.504187047E-2,2.938050102E-2
3.450308542E0,-9.514489096E-4,-5.516811423E-3,1.411517859E-2,1.518481906E-2
3.460361542E0,4.243746381E-3,9.144588467E-3,2.279946327E-2,2.492886694E-2
3.470414542E0,-1.920322979E-3,-5.416385494E-3,2.699133217E-2,2.759632013E-2
3.480467542E0,3.894445481E-3,-6.435902361E-3,1.696452677E-2,1.855755139E-2
3.490520542E0,4.887621897E-3,-1.097047292E-3,8.280826807E-3,9.678039738E-3
3.500573542E0,5.458748115E-3,4.291819744E-3,6.931289434E-3,9.811239520E-3
3.510626542E0,-1.382490544E-2,5.870823786E-3,3.162875891E-2,3.501389685E-2
3.520678542E0,-5.833961202E-3,-1.869738568E-3,3.028331459E-2,3.089676630E-2
3.530731542E0,1.436711821E-2,-2.158536203E-3,2.444486976E-2,2.843633277E-2
3.540784542E0,-5.221812541E-3,5.579358358E-3,2.998218298E-2,3.094071528E-2
3.550837542E0,1.338411903E-2,3.156400099E-3,3.222751379E-2,3.503869502E-2
3.560890542E0,-1.348186003E-2,-5.374961626E-3,2.144992590E-2,2.589884329E-2
3.570943542E0,-2.893951765E-3,4.711083379E-3,1.486537635E-2,1.586028617E-2
3.580996542E0,-7.717170065E-3,1.675026286E-3,2.518980503E-2,2.639861179E-2
3.591049542E0,-7.477329727E-4,-1.360709209E-2,2.458871126E-2,2.811257337E-2
3.601102542E0,-1.097941276E-2,-3.036221545E-3,1.919874787E-2,2.232393482E-2
3.611155542E0,4.261599232E-3,1.553184930E-3,1.545477569E-2,1.610663537E-2
3.621208542E0,3.698819001E-3,4.983709808E-3,1.620321929E-2,1.735116541E-2
3.631261542E0,-5.473490636E-3,-2.660154216E-3,7.371584773E-3,9.559068064E-3
3.641314542E0,-6.675850621E-3,5.626227446E-3,1.815092683E-2,2.014143891E-2
3.651366542E0,-6.842804045E-3,4.678156245E-3,2.937816560E-2,3.052516547E-2
3.661419542E0,4.735655103E-4,-2.002653088E-3,3.267073274E-2,3.273548016E-2
3.671472542E0,-1.224905570E-2,6.658809185E-3,1.380761504E-2,1.962216447E-2
3.681525542E0,-1.422775604E-3,1.156476930E-2,2.353796661E-2,2.626412099E-2
3.691578542E0,9.701997139E-3,1.276085380E-2,2.069388092E-2,2.617641774E-2
3.701631542E0,8.211593547E-4,2.997410651E-3,1.845147371E-2,1.871137770E-2
3.711684542E0,6.428348375E-3,-3.153019678E-3,1.261419833E-2,1.450459222E-2
3.721737542E0,3.299290290E-3,6.878372133E-3,1.126699984E-2,1.360671176E-2
3.731790542E0,-6.962815291E-3,-1.004222743E-3,1.912039518E-4,7.037458281E-3
3.741843542E0,-4.842070146E-3,-3.037464079E-3,2.144875646E-2,2.219731932E-2
3.751896542E0,-1.587785144E-2,1.068030484E-3,3.102766514E-2,3.487065900E-2
3.761949542E0,-1.806600059E-3,6.113647688E-3,1.965190709E-2,2.066005673E-2
3.772002542E0,-7.727220537E-3,-3.097288404E-3,1.530976474E-2,1.742676187E-2
3.782055542E0,-1.469066538E-3,-1.364332655E-2,1.815268099E-2,2.275562223E-2
3.792107542E0,-1.558795288E-2,9.777476471E-3,8.124706149E-3,2.011452637E-2
3.802160542E0,-1.949189666E-2,8.536478039E-3,6.179337502E-3,2.215828749E-2
3.812213542E0,1.888289202E-3,1.737447141E-2,2.653934240E-2,3.177695058E-2
3.822266542E0,1.406503643E-2,9.438685142E-4,5.884053111E-3,1.527541222E-2
3.832319542E0,6.686890667E-4,9.780400079E-3,1.995479286E-2,2.223279399E-2
3.842372542E0,1.667636297E-2,8.851807415E-3,3.732160807E-2,4.182532731E-2
3.852425542E0,-5.861413994E-3,1.831439305E-3,2.220304728E-2,2.303661547E-2
3.862478542E0,-1.218736415E-2,3.236890677E-3,3.986514688E-2,4.181195094E-2
3.872531542E0,-1.250359116E-3,-4.795392919E-3,2.684164345E-2,2.729529290E-2
3.882584542E0,-2.902983829E-3,9.254132397E-4,2.579557657E-2,2.597490088E-2
3.892637542E0,4.103706851E-4,3.251526989E-3,7.831760645E-3,8.489835491E-3
3.902690542E0,-2.615300819E-3,-8.254057523E-3,5.885222554E-3,1.046924584E-2
3.912743542E0,-6.573267960E-3,-5.994784757E-3,1.725922644E-2,1.941716234E-2
3.922796542E0,-8.638002034E-3,-8.665390871E-3,1.606113195E-2,2.019069186E-2
3.932848542E0,2.714056237E-3,-1.634724353E-2,1.830470860E-2,2.469131080E-2
3.942901542E0,1.000568690E-2,1.205895038E-2,3.783148527E-3,1.611968571E-2
3.952954542E0,8.334688000E-3,4.024547171E-3,2.069972813E-2,2.267471607E-2
3.963007542E0,8.175088135E-3,-1.101207951E-2,2.025183141E-2,2.445883556E-2
3.973060542E0,-1.313818822E-3,4.835555982E-3,4.420202672E-2,4.448514233E-2
3.983113542E0,9.410134284E-3,8.494853172E-3,3.432432532E-2,3.659060626E-2
3.993166542E0,-3.610555166E-3,2.253946317E-2,3.133055091E-2,3.876424808E-2
4.003219542E0,7.595998512E-5,3.076293245E-3,2.204985023E-2,2.226354071E-2
4.013272542E0,6.711326204E-3,2.469078172E-3,2.414081454E-2,2.517771183E-2
4.023325542E0,-2.809926591E-3,8.569368627E-3,2.818065584E-2,2.958849657E-2
4.033378542E0,-1.591888359E-2,1.263897590E-2,2.323858917E-2,3.087372010E-2
4.043431542E0,-1.662822279E-2,-3.291616961E-3,6.319670677E-3,1.809062666E-2
4.053484542E0,-1.431042534E-2,1.202183884E-2,1.574947536E-2,2.444092585E-2
4.063536542E0,-2.025959268E-2,2.196250744E-3,2.697554469E-2,3.380761193E-2
4.073589542E0,-4.908937967E-3,-2.274073530E-3,2.233460963E-2,2.298051065E-2
4.083642542E0,-6.841597486E-3,1.600912828E-3,3.430970728E-2,3.502179881E-2
4.093695542E0,3.911666216E-3,-1.202825250E-2,2.158675075E-2,2.501934848E-2
4.103748542E0,2.622979172E-2,-2.862939309E-2,5.569472909E-3,3.922579701E-2
4.113801542E0,3.320506147E-3,1.204690877E-3,1.829009056E-3,3.977727405E-3
4.123854542E0,9.692764934E-3,1.553111840E-3,1.949403226E-2,2.182611148E-2
4.133907542E0,7.315088050E-4,2.128642313E-3,7.970924377E-3,8.282623899E-3
4.143960542E0,-2.241016205E-2,-2.994596679E-3,2.189489901E-2,3.147331529E-2
4.154013542E0,-1.039644422E-2,-6.608979944E-3,3.147731602E-2,3.380216106E-2
4.164066542E0,-9.975836410E-3,1.142483812E-2,2.324560583E-2,2.775612416E-2
4.174119542E0,-9.894392233E-3,6.720332857E-3,3.596563876E-2,3.790236197E-2
4.184172542E0,-3.184447320E-3,-1.051084522E-2,2.428524077E-2,2.665317038E-2
4.194225542E0,-1.609278915E-2,-6.578391697E-3,2.308948517E-2,2.890289648E-2
4.204277542E0,-1.471061243E-2,6.960470695E-3,2.982664704E-2,3.397762711E-2
4.214330542E0,-1.265068747E-2,2.222491952E-2,2.219310701E-2,3.386031511E-2
4.224383542E0,-7.456916434E-3,8.797135949E-3,1.237855554E-3,1.159859862E-2
4.234436542E0,-1.729920221E-2,4.314751793E-3,2.803213656E-2,3.322168208E-2
4.244489542E0,-1.046675013E-2,7.978233397E-3,1.980276525E-2,2.377718608E-2
4.254542542E0,-1.613114665E-2,-8.663271256E-3,3.986397743E-2,4.386801634E-2
4.264595542E0,3.711361964E-3,-1.936963275E-3,6.930119991E-3,8.096455857E-3
4.274648542E0,6.906816781E-3,8.062469848E-3,5.136778951E-3,1.179381347E-2
4.284701542E0,1.200612559E-2,-8.758361600E-3,2.130666912E-2,2.597749215E-2
4.294754542E0,-3.503777528E-3,4.756344482E-5,2.414900064E-2,2.440190467E-2
4.304807542E0,3.367736689E-3,3.378850110E-3,2.684515178E-2,2.726573771E-2
4.314860542E0,-1.555795621E-3,4.476774484E-5,2.534884930E-2,2.539658766E-2
4.324913542E0,1.627206569E-2,5.754665192E-3,1.456833780E-2,2.258611874E-2
4.334966542E0,6.045051398E-3,1.306856353E-2,2.339821815E-2,2.747374405E-2
4.345018542E0,-2.211525453E-3,3.966897279E-3,2.609203041E-2,2.648435707E-2
4.355071542E0,-9.233208045E-3,1.639460597E-2,2.295090616E-2,2.967792663E-2
4.365124542E0,-1.034643796E-2,1.707511224E-2,2.669195473E-2,3.333269692E-2
4.375177542E0,-1.216229764E-2,1.009170949E-2,2.579265296E-2,3.024938068E-2
4.385230542E0,-8.911815608E-3,9.228861462E-3,7.378016710E-3,1.479957675E-2
4.395283542E0,9.782172516E-3,6.573330201E-3,1.426077425E-2,1.850052030E-2
4.405336542E0,1.238901771E-2,9.770514630E-4,2.294096589E-2,2.609080883E-2
4.415389542E0,8.189614811E-3,-9.708680324E-3,9.018745422E-3,1.557774160E-2
4.425442542E0,2.568310104E-3,-2.811341286E-3,2.443668365E-2,2.473158638E-2
4.435495542E0,1.179930888E-2,4.327889755E-3,1.875143588E-2,2.257367199E-2
4.445548542E0,7.313593984E-3,1.178042192E-2,2.189314485E-2,2.591479865E-2
4.455601542E0,1.123265887E-2,5.652923640E-3,3.521251738E-2,3.739050082E-2
4.465654542E0,3.764815450E-3,5.342783667E-3,3.207197785E-2,3.273119210E-2
4.475706542E0,-4.530535178E-3,-9.090812355E-3,2.713341951E-2,2.897224660E-2
4.485759542E0,-1.328563684E-2,9.857930504E-3,3.267014802E-2,3.662001518E-2
4.495812542E0,-4.599458661E-3,-7.336391844E-3,2.458695710E-2,2.606714646E-2
4.505865542E0,-1.323054739E-2,1.026729042E-2,1.695107818E-2,2.382863169E-2
4.515918542E0,-2.365578800E-2,-6.489751562E-3,2.278893828E-2,3.348206818E-2
4.525971542E0,-9.416569076E-3,-2.127070874E-3,3.029442430E-3,1.011799017E-2
4.536024542E0,-5.643537831E-3,1.657959726E-2,2.368882477E-2,2.946002348E-2
4.546077542E0,8.504986443E-5,6.464042086E-3,2.294213533E-2,2.383553329E-2
4.556130542E0,-1.843193008E-2,1.858530186E-2,1.096937656E-2,2.838092165E-2
4.566183542E0,-7.258928228E-3,3.517465666E-3,4.381903410E-3,9.179634046E-3
4.576236542E0,-6.784667647E-3,2.589421179E-3,4.080771804E-3,8.330036953E-3
4.586289542E0,-7.693057152E-3,2.098445099E-2,2.159493685E-2,3.107847501E-2
4.596342542E0,8.077130142E-3,6.552737039E-3,2.997575104E-2,3.172891496E-2
4.606395542E0,-5.470390584E-3,-1.081886558E-2,2.039567292E-2,2.372670435E-2
4.616448542E0,2.320507646E-3,-1.198149305E-2,1.605411530E-2,2.016619819E-2
4.626500542E0,-1.876706233E-2,-1.209973471E-2,1.904788971E-2,2.935009900E-2
4.636553542E0,-1.231135824E-2,3.448815700E-3,2.338652372E-2,2.665320550E-2
4.646606542E0,-8.798389903E-3,8.558861911E-4,1.170904934E-2,1.467126588E-2
4.656659542E0,-1.164650926E-2,7.191673256E-3,2.907235622E-2,3.213352204E-2
4.666712542E0,-1.503682654E-2,1.566474555E-2,2.862445951E-2,3.592840224E-2
4.676765542E0,-2.058120553E-2,1.105430737E-2,1.532555223E-3,2.341222881E-2
4.686818542E0,3.651742063E-3,6.094973143E-3,2.383617461E-2,2.487261823E-2
4.696871542E0,-7.722519353E-3,3.374994602E-3,2.548333526E-2,2.684079488E-2
4.706925583E0,-4.082093423E-3,2.951235920E-3,1.500220120E-2,1.582527475E-2
4.716978583E0,5.566834239E-3,3.589221966E-3,2.637562037E-2,2.719458599E-2
4.727031583E0,1.655345609E-3,1.100140834E-2,2.413145900E-2,2.657251339E-2
4.737084583E0,8.506203280E-3,-5.711669885E-3,2.113943875E-2,2.349158440E-2
4.747137583E0,9.694363782E-4,-1.171211913E-2,2.982138455E-2,3.205352583E-2
4.757189583E0,-8.723298863E-3,-8.466786537E-3,3.341449857E-2,3.555715303E-2
4.767242583E0,-2.118650198E-2,-5.449732896E-3,1.201135039E-2,2.495676247E-2
4.777295583E0,-9.637416241E-3,-1.587738320E-3,2.144232452E-2,2.356213033E-2
4.787348583E0,-1.196786515E-2,-4.597884938E-3,1.455898225E-2,1.939933778E-2
4.797401583E0,-5.257988762E-3,4.426415339E-3,1.770419955E-2,1.899153181E-2
4.807454583E0,-7.099426577E-3,-4.027306326E-3,6.775753498E-3,1.060810489E-2
4.817507583E0,-1.296323370E-2,6.626210958E-3,1.964605987E-2,2.445239800E-2
4.827560583E0,1.697951483E-3,1.196190488E-2,3.341625273E-2,3.553331049E-2
4.837613583E0,4.874716338E-4,3.885895070E-3,3.071893215E-2,3.096757339E-2
4.847666583E0,-1.267932740E-2,2.880831789E-3,8.564416766E-3,1.556964257E-2
4.857719583E0,4.167521586E-4,8.102468457E-3,1.709725857E-2,1.892458528E-2
4.867772583E0,-3.627998598E-3,4.722649902E-3,2.278659940E-2,2.355196187E-2
4.877825583E0,-2.260414371E-3,4.713568445E-3,1.485075831E-2,1.574395831E-2
4.887878583E0,8.456004020E-3,-6.211022101E-3,1.095885158E-2,1.517159278E-2
4.897930583E0,2.320336912E-3,-2.391675655E-3,1.634881496E-2,1.668495809E-2
4.907983583E0,-8.596011145E-3,-1.803732639E-2,3.266605496E-2,3.829239739E-2
4.918036583E0,2.252484513E-3,-1.119250266E-2,1.724870145E-2,2.068486171E-2
4.928089583E0,-1.705182387E-2,-7.291331738E-3,1.335679471E-2,2.285458775E-2
4.938142583E0,-3.904962189E-3,7.102667671E-3,1.949344754E-2,2.111139775E-2
4.948195583E0,-5.261834562E-3,-6.465449072E-3,2.098975003E-2,2.258447566E-2
4.958248583E0,-3.023938281E-2,4.312814903E-3,1.021216214E-2,3.220728024E-2
4.968301583E0,-1.997486982E-2,1.269024868E-2,2.937231839E-2,3.771963578E-2
4.978354583E0,-3.894650761E-3,4.224521946E-3,3.087037504E-2,3.140055645E-2
4.988407583E0,-7.789781177E-3,5.862290505E-3,3.146971464E-2,3.294525885E-2
4.998460583E0,-2.053070249E-2,1.708406579E-2,1.545302153E-2,3.085726693E-2
5.008513583E0,-1.426868969E-2,2.022334451E-2,2.188729763E-2,3.303986934E-2
5.018566583E0,1.779266610E-3,-1.390339974E-3,2.996639550E-2,3.005135095E-2
5.028619583E0,-6.077705013E-3,7.512502670E-3,3.116273582E-2,3.262655818E-2
5.038671583E0,-8.815494151E-3,-2.642941475E-3,2.517752588E-2,2.680682536E-2
5.048724583E0,-1.789580893E-2,2.126193792E-4,1.140557885E-2,2.122245069E-2
5.058777583E0,-2.050548865E-2,-7.972093821E-3,2.173117697E-2,3.092367050E-2
5.068830583E0,-2.463125318E-5,-5.571190529E-3,2.038163960E-2,2.112936353E-2
5.078883583E0,-1.245181590E-2,-1.616444495E-3,9.453193545E-3,1.571698063E-2
5.088936583E0,-5.727447089E-3,5.652101375E-3,1.095125020E-2,1.358969392E-2
5.098989583E0,3.427817400E-3,-6.464955714E-3,2.382214129E-2,2.492067415E-2
5.109042583E0,1.422586798E-2,-1.560420860E-3,1.708673358E-2,2.228826367E-2
5.119095583E0,-7.011025128E-3,1.414744791E-2,2.696385026E-2,3.124666344E-2
5.129148583E0,-7.970041585E-3,4.018096961E-3,2.472027361E-2,2.628228669E-2
5.139201583E0,-1.013447297E-2,4.035967514E-3,3.040786028E-2,3.230533304E-2
5.149254583E0,-1.069906061E-3,2.220313864E-2,1.738669574E-2,2.822093643E-2
5.159307583E0,-7.453191119E-3,6.879084762E-3,2.157622576E-2,2.384125380E-2
5.169360583E0,-7.607487948E-3,4.621675797E-3,2.636860371E-2,2.783050523E-2
5.179412583E0,-9.796877350E-3,5.654531624E-3,1.933381855E-2,2.239975611E-2
5.189465583E0,-9.232480569E-3,-7.180472184E-3,1.903151751E-2,2.233823039E-2
5.199518583E0,5.526632704E-4,4.195212778E-3,2.486937761E-2,2.522679508E-2
5.209571583E0,2.346542602E-3,1.030206308E-3,1.573602676E-2,1.594334110E-2
5.219624583E0,5.599646026E-3,8.450140245E-3,9.001203775E-3,1.355664321E-2
5.229677583E0,1.179965492E-2,-6.228161752E-3,2.426945329E-2,2.769527429E-2
5.239730583E0,-3.441430449E-3,-7.708366122E-3,1.618626237E-2,1.825534008E-2
5.249783583E0,7.004016463E-4,5.110740568E-3,7.951628566E-3,9.478324138E-3
5.259836583E0,1.841161329E-2,1.021831999E-2,2.862212062E-3,2.125073705E-2
5.269889583E0,1.049487273E-2,-1.460890286E-4,1.782932997E-2,2.068933790E-2
5.279942583E0,-1.028998492E-2,2.481649686E-3,2.127333999E-2,2.376125773E-2
5.289995583E0,-7.449606844E-3,9.072430171E-3,7.052326798E-3,1.369455894E-2
5.300048583E0,1.140301727E-2,-1.460431645E-2,1.603423476E-2,2.450329664E-2
5.310101583E0,2.484315479E-3,1.585803257E-2,2.755909681E-2,3.189283364E-2
5.320153583E0,-1.160766525E-2,1.739117252E-2,1.648154676E-2,2.662390200E-2
5.330206583E0,5.113524848E-3,6.667232830E-3,2.052489638E-2,2.217817624E-2
5.340259583E0,-7.872794509E-3,-1.041063856E-2,2.186975598E-2,2.546857898E-2
5.350312583E0,-1.347495872E-2,8.242015913E-4,2.471150279E-2,2.815869654E-2
5.360365583E0,-6.203034142E-3,2.489232793E-2,6.896790862E-3,2.656447528E-2
5.370418583E0,4.335084857E-3,2.588306554E-3,1.258496225E-2,1.355999876E-2
5.380471583E0,2.728873846E-3,-8.539858460E-4,2.500912607E-2,2.517205655E-2
5.390524583E0,-4.484353880E-3,3.147647548E-3,1.048990488E-2,1.183449277E-2
5.400577583E0,-1.298207841E-2,-1.023238985E-2,2.112072766E-2,2.682016590E-2
5.410630583E0,-1.409321955E-2,9.039630946E-3,2.845605969E-2,3.301637621E-2
5.420683583E0,-2.268088357E-2,4.846592601E-3,2.022318006E-2,3.077156075E-2
5.430736583E0,4.159875381E-3,-4.648371991E-3,1.662948132E-2,1.776095645E-2
5.440789583E0,6.403213342E-3,3.957815822E-3,1.573017955E-2,1.743857780E-2
5.450842583E0,-7.392238464E-3,3.275701571E-3,1.752761364E-2,1.930265915E-2
5.460894583E0,-4.415937460E-3,1.820439231E-2,1.603131115E-2,2.465569590E-2
5.470947583E0,5.818438101E-3,2.030884176E-3,8.397771120E-3,1.041639440E-2
5.481000583E0,6.248607021E-3,3.891797103E-3,2.920099497E-2,3.011460246E-2
5.491053583E0,-1.095491841E-2,1.312774831E-2,1.707445443E-2,2.416371261E-2
5.501106583E0,-7.230290005E-3,1.839771587E-2,2.485534430E-2,3.175753742E-2
5.511159583E0,-1.431815234E-2,8.424558677E-3,1.617281377E-2,2.318496454E-2
5.521212583E0,-1.897937108E-2,1.395344825E-2,2.515413702E-2,3.446223808E-2
5.531265583E0,-1.075163288E-2,1.858621549E-2,1.302701175E-2,2.511469791E-2
5.541318583E0,2.695138153E-3,-3.506684862E-3,1.482444584E-2,1.547012615E-2
5.551371583E0,1.503683168E-3,3.646415044E-3,1.063140750E-2,1.133949872E-2
5.561424583E0,-4.176716961E-3,-5.403448530E-3,9.435067177E-3,1.164743376E-2
5.571477583E0,-5.461753949E-3,8.179596886E-3,1.198036015E-2,1.550050292E-2
5.581530583E0,3.708171120E-3,1.397541186E-2,1.003499150E-2,1.760010580E-2
5.591583583E0,-6.871893943E-3,1.848407194E-2,1.048405766E-2,2.233381533E-2
5.601635583E0,-1.724151235E-2,8.759293500E-3,5.396980047E-3,2.007790737E-2
5.611688583E0,-5.363101600E-3,5.362901744E-3,6.743009090E-3,1.014848489E-2
5.621741583E0,-1.549440885E-2,8.766145706E-3,1.767145514E-2,2.508390606E-2
5.631794583E0,-1.806444400E-2,4.741141722E-3,3.129020512E-2,3.644008093E-2
5.641847583E0,-8.767916430E-3,-2.811505739E-3,2.560086429E-2,2.720634440E-2
5.651900583E0,3.737679573E-3,-8.909603488E-3,2.201008916E-2,2.403737314E-2
5.661953583E0,-9.774190838E-3,-2.858740278E-4,2.320818365E-2,2.518404889E-2
5.672006583E0,-5.495072943E-4,5.388702583E-3,1.961390018E-2,2.034809952E-2
5.682059583E0,-1.014989157E-2,2.495063564E-2,2.110903323E-2,3.422200756E-2
5.692112583E0,-9.388350693E-4,1.847531025E-2,2.005711913E-2,2.728564692E-2
5.702164917E0,-1.065135655E-2,6.116434252E-3,1.152369261E-2,1.684213929E-2
5.712217917E0,-1.768030705E-3,-1.658188133E-2,1.571439207E-2,2.291346414E-2
5.722270917E0,6.002395845E-3,-6.793560097E-3,1.631431639E-2,1.866381885E-2
5.732323917E0,-1.815567655E-2,3.082871363E-3,1.750948727E-2,2.541091953E-2
5.742376917E0,-5.396722518E-3,-2.426685859E-4,3.756836057E-2,3.795477859E-2
5.752428917E0,-5.269560424E-3,2.505160061E-2,1.900929809E-2,3.188580207E-2
5.762481917E0,1.502554695E-3,1.398383550E-2,2.320058227E-2,2.713065321E-2
5.772534917E0,-1.001632724E-2,4.643822126E-3,3.233276367E-2,3.416576506E-2
5.782587917E0,-3.360846225E-3,1.801645914E-3,2.290003538E-2,2.321535776E-2
5.792640917E0,-1.732461904E-3,3.647100264E-3,2.738718867E-2,2.768322358E-2
5.802693917E0,-3.419771483E-3,-7.261255123E-3,3.651820064E-2,3.738983339E-2
5.812746917E0,-8.889081702E-3,-9.297164250E-4,2.753629267E-2,2.895043282E-2
5.822799917E0,-2.073195406E-2,1.068021348E-3,6.429013610E-3,2.173216060E-2
5.832852917E0,8.420796816E-3,1.364382905E-2,1.466189325E-2,2.172636656E-2
5.842905917E0,-4.612651156E-3,4.729657425E-3,1.840294182E-2,1.955286367E-2
5.852958917E0,-1.031542260E-2,2.731143069E-3,3.396939933E-2,3.560599917E-2
5.863011917E0,1.342597480E-4,4.977798639E-3,1.510628164E-2,1.590585584E-2
5.873064917E0,-9.775355713E-3,5.880005741E-3,1.555534780E-2,1.928991685E-2
5.883117917E0,-4.407585477E-3,-1.175137770E-2,8.367365599E-3,1.508424658E-2
5.893169917E0,-1.718270215E-2,1.295962259E-2,1.734868884E-2,2.764369866E-2
5.903222917E0,-2.364142207E-3,-1.524844207E-3,-1.213297248E-3,3.063724603E-3
5.913275917E0,1.734046048E-3,-3.924194332E-3,7.770364881E-3,8.876079497E-3
5.923328917E0,4.843775774E-3,1.482720500E-2,1.151433706E-2,1.938783458E-2
5.933381917E0,-1.912203971E-3,1.682438546E-2,1.914729238E-2,2.556042401E-2
5.943434917E0,2.199745441E-4,6.534172129E-4,2.438873649E-2,2.439847967E-2
5.953487917E0,-1.153100049E-3,9.323823899E-3,2.977811515E-2,3.122498157E-2
5.963540917E0,1.224640789E-3,1.178613209E-2,2.498690665E-2,2.765426113E-2
5.973593917E0,6.551708066E-3,1.589859763E-2,3.561831415E-2,3.955192268E-2
5.983646917E0,-9.109807241E-3,5.213596746E-3,1.810765743E-2,2.092982171E-2
5.993699917E0,4.101796655E-3,1.470191013E-2,1.750831783E-2,2.322739956E-2
6.003752917E0,-1.393403596E-2,4.060050733E-3,9.724504352E-3,1.747018474E-2
6.013805917E0,6.517086154E-3,1.551796217E-3,1.586115718E-2,1.721792062E-2
6.023858917E0,-1.646654443E-3,5.283498382E-3,1.571205318E-2,1.665819441E-2
6.033911917E0,-1.276309562E-2,1.899350147E-2,6.728975773E-3,2.385222888E-2
6.043963917E0,1.953109128E-2,-8.086562203E-3,3.732862473E-3,2.146602611E-2
6.054016917E0,-7.446035703E-3,8.929511430E-3,1.016772330E-2,1.544545950E-2
6.064069917E0,2.568308462E-4,-2.922657654E-3,2.603297353E-2,2.619777854E-2
6.074122917E0,-2.100773535E-3,-1.162328714E-2,7.022505999E-3,1.374152989E-2
6.084175917E0,-6.558426082E-3,3.763542082E-3,1.076296985E-2,1.315365811E-2
6.094228917E0,1.375823805E-2,7.162263589E-3,2.049098253E-2,2.569956223E-2
6.104281917E0,-7.339458777E-3,2.129649131E-2,2.273572862E-2,3.200502387E-2
6.114334917E0,-4.741354568E-4,1.961615684E-2,2.513133287E-2,3.188420151E-2
6.124387917E0,-6.480344626E-3,7.446493087E-3,2.034187853E-2,2.261055391E-2
6.134440917E0,-1.167354464E-2,3.153746925E-2,1.944374621E-2,3.884511395E-2
6.144493917E0,-2.515677454E-3,1.308085182E-2,2.078919053E-2,2.469064115E-2
6.154546917E0,-6.082703127E-3,5.918368958E-3,1.524836898E-2,1.745104939E-2
6.164599917E0,-1.759971512E-3,9.726176290E-3,2.108739853E-2,2.328893260E-2
6.174651917E0,5.519798699E-4,4.450388923E-3,8.963196874E-3,1.002245187E-2
6.184704917E0,-5.188932802E-3,9.105211124E-4,1.869471788E-2,1.942283576E-2
6.194757917E0,-1.220087070E-3,-3.217978589E-3,8.365026712E-3,9.045312076E-3
6.204810917E0,-4.988479515E-3,7.355687656E-3,1.480222642E-2,1.726548510E-2
6.214863917E0,-4.153806611E-3,1.947756870E-2,2.138853014E-2,2.922497242E-2
6.224916917E0,7.708632216E-3,6.684153210E-3,1.749545395E-2,2.025319293E-2
6.234969917E0,-2.361146223E-3,-6.008297307E-3,3.710643053E-2,3.766380006E-2
6.245022917E0,2.838991364E-3,-4.691942884E-3,2.857241929E-2,2.909393998E-2
6.255075917E0,-1.434956114E-3,7.905380744E-3,2.588036120E-2,2.709884203E-2
6.265128917E0,-1.205831884E-2,-4.271336216E-3,2.707611680E-2,2.994600920E-2
6.275181917E0,-9.765297817E-3,6.598966587E-3,1.435374498E-2,1.857249032E-2
6.285234917E0,1.542120474E-3,1.951005729E-3,2.333506823E-2,2.346721049E-2
6.295287917E0,-1.739261491E-2,1.353875276E-2,2.139028430E-2,3.071392424E-2
6.305340917E0,-6.881125006E-3,2.243695417E-3,1.465312243E-2,1.634313456E-2
6.315393917E0,-1.184712586E-2,1.068099920E-2,1.405553699E-2,2.126020355E-2
6.325445917E0,-1.362093240E-2,1.411735302E-2,1.809771717E-2,2.669001353E-2
6.335498917E0,6.805772441E-3,2.757693082E-3,3.351507068E-2,3.431010598E-2
6.345551917E0,-6.556229808E-4,6.915246136E-4,1.345619738E-2,1.348989606E-2
6.355604917E0,-1.787777963E-2,-1.138966346E-2,1.016246080E-2,2.350776569E-2
6.365657917E0,-6.511525589E-4,2.561582951E-3,8.667327762E-3,9.061361785E-3
6.375710917E0,6.312548951E-4,6.415829966E-3,1.076589346E-2,1.254853852E-2
6.385763917E0,-7.555921673E-4,1.488235155E-2,5.977023840E-3,1.605553242E-2
6.395816917E0,2.456278537E-3,2.095331457E-3,1.121729851E-2,1.167268195E-2
6.405869917E0,-8.289220474E-5,9.815574735E-3,3.135277033E-3,1.030448158E-2
6.415922917E0,7.559589887E-3,6.110797171E-4,3.202812374E-2,3.291385009E-2
6.425975917E0,-7.640513867E-3,1.221045722E-2,2.110026240E-2,2.554787254E-2
6.436028917E0,-1.312499715E-2,5.330477105E-3,3.472135127E-2,3.750002360E-2
6.446081917E0,-5.967910977E-3,-2.482088227E-3,1.930399776E-2,2.035733413E-2
6.456134917E0,-7.045516848E-3,9.869771115E-3,3.052948236E-2,3.284967249E-2
6.466187917E0,-7.292321311E-3,1.697766474E-3,1.555944085E-2,1.726721057E-2
6.476239917E0,-1.787053913E-2,5.441702111E-3,2.903142571E-2,3.452234016E-2
6.486292917E0,-1.050207825E-3,-4.210762717E-3,1.645640373E-2,1.701900946E-2
6.496345917E0,1.045326842E-2,1.246988174E-2,1.885317743E-2,2.490403723E-2
6.506398917E0,-2.347761010E-2,-1.175139598E-2,1.705866694E-2,3.130960877E-2
6.516451917E0,-1.014645291E-2,-3.800516585E-3,2.619143307E-2,2.834405757E-2
6.526504917E0,-2.208725185E-2,-2.249058411E-3,2.110143185E-2,3.062964877E-2
6.536557917E0,2.825587022E-3,2.409071121E-3,2.484306514E-2,2.511902569E-2
6.546610917E0,7.947377486E-4,8.718746714E-3,1.750831783E-2,1.957522275E-2
6.556663917E0,-1.110681468E-2,-2.115659667E-3,2.349645138E-2,2.607528668E-2
6.566716917E0,-2.637921663E-3,1.373574911E-2,1.526415646E-2,2.070323421E-2
6.576769917E0,-7.592523301E-3,1.309627385E-2,9.873608351E-3,1.807337657E-2
6.586822917E0,-4.004694617E-3,6.391554885E-3,1.193416715E-3,7.636347051E-3
6.596875917E0,-1.281122551E-2,1.925986955E-2,1.586291134E-2,2.804820904E-2
6.606928917E0,1.050104999E-2,1.004375319E-2,2.095349729E-2,2.549898190E-2
6.616981917E0,5.742094821E-3,2.738985647E-2,1.825734615E-2,3.341416733E-2
6.627033917E0,-8.521271852E-3,1.511199181E-2,3.337356806E-2,3.761355361E-2
6.637086917E0,5.566331173E-3,1.228178412E-2,3.711578608E-2,3.948933831E-2
6.647139917E0,-1.059197991E-2,1.646364880E-2,1.855438471E-2,2.697233698E-2
6.657192917E0,-7.410867327E-3,1.872132272E-3,1.032033563E-2,1.284270848E-2
6.667245917E0,-1.159775810E-2,1.392051199E-2,2.094472647E-2,2.769422708E-2
6.677298917E0,-5.648137374E-3,1.566091745E-2,1.735044301E-2,2.404586583E-2
6.687351917E0,-7.165852432E-3,6.746992506E-3,3.281457424E-3,1.037493671E-2
6.697404917E0,1.753374122E-3,4.952947972E-3,1.480690420E-2,1.571147435E-2
6.707458417E0,6.649279480E-3,8.660740508E-3,2.812744617E-2,3.017241409E-2
6.717511417E0,-1.570975969E-4,2.649400821E-3,1.195931017E-2,1.225026956E-2
6.727564417E0,1.166348674E-2,1.061687169E-2,5.821487904E-3,1.681203762E-2
6.737617417E0,1.599608054E-2,-1.024340820E-3,5.523864627E-3,1.695396553E-2
6.747670417E0,-3.467504163E-4,2.106925389E-3,2.214223623E-2,2.224495439E-2
6.757723417E0,-6.042847557E-4,-1.617120579E-6,2.663289785E-2,2.663975245E-2
6.767776417E0,1.702130187E-3,2.087090537E-4,2.169200063E-2,2.175968056E-2
6.777828417E0,1.335486468E-2,1.987455809E-2,1.316149771E-2,2.732353367E-2
6.787881417E0,-7.208088287E-3,4.917024141E-3,1.480982780E-2,1.718908557E-2
6.797934417E0,-5.807478569E-3,2.517820196E-3,1.600792229E-2,1.721394208E-2
6.807987417E0,-1.760000719E-2,1.179428165E-2,1.331352532E-2,2.502229584E-2
6.818040417E0,8.787208816E-4,7.749762582E-3,1.780418694E-2,1.943759355E-2
6.828093417E0,-6.240441476E-3,1.123889666E-2,2.678434074E-2,2.970954084E-2
6.838146417E0,-1.143841919E-2,6.859386954E-3,1.795387566E-2,2.236582827E-2
6.848199417E0,-6.144467197E-3,6.015414465E-4,9.568383694E-3,1.138728658E-2
6.858252417E0,-5.518545602E-3,1.237042425E-3,1.211484611E-2,1.336989588E-2
6.868305417E0,-1.027098376E-2,6.374150282E-3,1.136581779E-2,1.659230885E-2
6.878358417E0,-1.746327485E-3,-3.951000161E-3,2.079328358E-2,2.123724803E-2
6.888411417E0,-9.343595939E-3,-9.009737056E-3,1.839826405E-2,2.251608907E-2
6.898464417E0,-9.673046570E-3,5.082874931E-4,1.405787587E-2,1.707190851E-2
6.908517417E0,-8.581311451E-3,3.539666813E-4,2.379816771E-3,8.912223431E-3
6.918570417E0,1.488379508E-2,9.768376742E-3,1.555067003E-2,2.363835609E-2
6.928623417E0,1.719013736E-3,1.089540929E-2,2.827538073E-2,3.035065250E-2
6.938675417E0,7.478568834E-3,-7.013113908E-3,2.558215320E-2,2.756010379E-2
6.948728417E0,-6.047336465E-4,-2.007294316E-3,2.483487904E-2,2.492320506E-2
6.958781417E0,-4.881579393E-3,1.253350675E-2,2.378939688E-2,2.732862991E-2
6.968834417E0,-2.268893691E-3,1.516676378E-3,1.869881094E-2,1.889692346E-2
6.978887417E0,-1.863248387E-2,7.012191145E-3,1.974487782E-2,2.803926675E-2
6.988940417E0,-7.993524665E-3,1.135146470E-2,2.558507681E-2,2.910924840E-2
6.998993417E0,-1.236160661E-2,1.624004762E-2,3.112239003E-2,3.721762520E-2
7.009046417E0,-7.699933341E-3,-8.474863004E-3,2.423436999E-2,2.680330139E-2
7.019099417E0,6.064497387E-3,1.118433483E-2,2.483254015E-2,2.790201650E-2
7.029152417E0,-2.242626245E-2,2.118442576E-2,1.525070786E-2,3.441367799E-2
7.039205417E0,-3.159854982E-2,9.497924745E-3,5.817979574E-3,3.350414618E-2
7.049258417E0,-7.876952084E-3,3.635122608E-3,3.423544765E-3,9.326368493E-3
7.059311417E0,-2.313658266E-2,-8.989015985E-3,1.060684919E-2,2.699276043E-2
7.069364417E0,-1.271525866E-3,7.583546340E-3,2.168206036E-2,2.300518843E-2
7.079417417E0,-2.972637072E-3,1.676359269E-2,2.587275982E-2,3.097183094E-2
7.089469417E0,-1.031165617E-2,8.801229000E-3,2.302925885E-2,2.672337269E-2
7.099522417E0,-9.467058984E-3,-5.667916266E-3,-2.117276788E-3,1.123536121E-2
7.109575417E0,-8.928525854E-3,2.739758575E-3,2.692233503E-2,2.849626246E-2
7.119628417E0,8.527518209E-3,7.681962289E-3,8.660311103E-3,1.437818138E-2
7.129681417E0,-9.135323713E-3,1.262042013E-2,1.629443586E-2,2.254412969E-2
7.139734417E0,-1.749794816E-2,1.241133649E-2,1.778956890E-2,2.786912673E-2
7.149787417E0,-1.689129154E-2,7.608570596E-3,1.973610699E-2,2.706880115E-2
7.159840417E0,-1.740202413E-2,9.054861115E-3,1.913559794E-2,2.740423438E-2
7.169893417E0,3.474832811E-4,1.486620775E-2,1.584303081E-2,2.172847217E-2
7.179946417E0,3.771263662E-3,6.517544109E-3,2.003373027E-2,2.140212978E-2
7.189999417E0,-8.372718884E-3,4.605468046E-3,1.719139874E-2,1.966867937E-2
7.200052417E0,-1.379241114E-2,1.036698544E-2,2.212761819E-2,2.805951673E-2
7.210105417E0,1.335391222E-2,-8.295737207E-6,6.558237076E-3,1.487741624E-2
7.220158417E0,1.000994212E-2,5.850148397E-3,2.137742043E-2,2.431907238E-2
7.230211417E0,1.001890938E-2,6.994631225E-3,2.616804421E-2,2.888026920E-2
7.240263417E0,-1.621868701E-2,-2.183021419E-4,1.472328901E-3,1.628684182E-2
7.250316417E0,6.998581807E-4,1.495145833E-2,3.569140434E-3,1.538748424E-2
7.260369417E0,1.859383743E-2,7.185213910E-3,1.614533186E-2,2.565209212E-2
7.270422417E0,1.387094170E-3,-2.235883903E-3,1.943848372E-2,1.961575531E-2
7.280475417E0,-8.295487101E-3,-1.150003879E-2,3.271517158E-3,1.455227896E-2
7.290528417E0,8.020526925E-4,5.952858394E-3,1.928937972E-2,2.020296962E-2
7.300581417E0,-4.211595545E-3,-9.235311672E-4,1.015836775E-2,1.103552818E-2
7.310634417E0,-1.307090584E-2,-2.769707283E-3,2.243108869E-2,2.610887967E-2
7.320687417E0,-1.703877042E-2,1.105089040E-2,2.976525128E-2,3.603348526E-2
7.330740417E0,-1.170917040E-2,8.415815262E-3,1.075595319E-2,1.798947323E-2
7.340793417E0,-7.573563819E-3,-4.261934990E-3,1.449758649E-2,1.690275045E-2
7.350846417E0,-4.870662116E-3,-1.596655324E-4,5.816810131E-3,7.588420299E-3
7.360899417E0,-7.625601754E-3,8.575325478E-3,2.423027694E-2,2.681030268E-2
7.370952417E0,-2.276183581E-4,2.013805739E-2,1.539805770E-2,2.535139732E-2
7.381005417E0,4.249999875E-3,9.478802523E-3,1.405144393E-2,1.747436044E-2
7.391058417E0,8.928919285E-3,3.483332545E-3,2.917000473E-2,3.070420787E-2
7.401111417E0,1.092744249E-3,1.197593819E-2,2.887121201E-2,3.127561459E-2
7.411163417E0,4.127616338E-3,-1.611492634E-3,3.051720321E-2,3.083721481E-2
7.421216417E0,1.715019043E-3,-1.122312745E-2,2.453023911E-2,2.703021477E-2
7.431269417E0,-1.583422116E-2,-2.128651449E-3,2.273222029E-2,2.778502395E-2
7.441322417E0,-6.175158798E-3,-1.889582556E-3,1.659556746E-2,1.780775022E-2
7.451375417E0,-1.524885549E-2,6.766151274E-3,1.045891464E-2,1.969003027E-2
7.461428417E0,-1.052578417E-2,-9.939352982E-4,1.854152083E-2,2.134403979E-2
7.471481417E0,-1.833345589E-2,1.333185269E-2,8.960273266E-3,2.437499534E-2
7.481534417E0,-3.341841917E-3,1.946538091E-3,1.688909769E-2,1.732623845E-2
7.491587417E0,-1.854428341E-2,-2.164657507E-3,1.060334086E-2,2.147107419E-2
7.501640417E0,-3.184696569E-3,2.625144012E-3,-1.374095678E-3,4.349920948E-3
7.511693417E0,-2.698343386E-2,1.316948282E-2,2.691590309E-2,4.032377487E-2
7.521746417E0,-5.752494185E-3,1.882702027E-2,2.182707131E-2,2.939334829E-2
7.531799417E0,1.821776096E-2,-1.339916876E-3,1.434205055E-2,2.322448289E-2
7.541852417E0,6.326891189E-3,8.566700835E-3,1.179675758E-2,1.589280984E-2
7.551905417E0,1.098621929E-2,5.672703674E-3,3.262746334E-3,1.278757580E-2
7.561958417E0,9.402062243E-4,-1.149819327E-2,1.583601415E-2,1.959264608E-2
7.572010417E0,-8.780173314E-3,-9.972883109E-4,1.808134496E-2,2.012513511E-2
7.582063417E0,-1.089179703E-2,7.353540631E-3,1.239141941E-2,1.806247706E-2
7.592116417E0,-7.402303212E-3,-2.934973352E-3,6.702663302E-3,1.040835514E-2
7.602169417E0,-4.192723999E-3,3.284920072E-3,1.763052464E-2,1.841751974E-2
7.612222417E0,-1.018001501E-2,1.118234312E-3,1.059632421E-2,1.473652742E-2
7.622275417E0,-6.573799292E-4,-5.404544882E-3,2.213171124E-3,5.877021370E-3
7.632328417E0,-2.074240824E-2,-7.575204922E-3,9.846126437E-3,2.417803621E-2
7.642381417E0,-2.220521486E-2,-4.787691040E-3,1.598394871E-2,2.777553183E-2
7.652434417E0,-1.599654763E-2,1.140481140E-3,1.119274020E-2,1.955678058E-2
7.662487417E0,-1.533447608E-2,-1.252290867E-3,2.975414157E-2,3.349661669E-2
7.672540417E0,-4.581172979E-3,7.133767549E-3,1.642950654E-2,1.848800883E-2
7.682593417E0,9.397303528E-3,6.379102143E-3,5.951296091E-3,1.282264337E-2
7.692646417E0,3.394584202E-4,1.602792160E-2,3.108379841E-3,1.633008046E-2
7.702698583E0,-3.952150761E-3,1.907228356E-2,1.762760103E-2,2.626982706E-2
7.712751583E0,-2.381220331E-2,1.774930534E-2,2.092250705E-2,3.632919167E-2
7.722804583E0,-8.101694872E-4,-3.737604199E-3,1.044546604E-2,1.112357050E-2
7.732857583E0,-3.514758474E-3,1.003193085E-2,7.002625465E-3,1.272909766E-2
7.742909583E0,3.354451689E-3,1.055924920E-2,1.987702489E-2,2.275623449E-2
7.752962583E0,2.271474717E-2,1.003312770E-2,2.212352514E-2,3.325768716E-2
7.763015583E0,-3.747075661E-3,3.146267971E-3,3.020671606E-2,3.060041296E-2
7.773068583E0,-3.628242423E-3,1.286051229E-2,2.287196875E-2,2.648931622E-2
7.783121583E0,1.545960992E-3,1.416496214E-2,-4.971302748E-3,1.509138824E-2
7.793174583E0,-2.601139593E-2,1.023439069E-2,2.062371433E-2,3.473720000E-2
7.803227583E0,-1.780891154E-2,1.109729354E-2,8.798890114E-3,2.275363095E-2
7.813280583E0,-9.308849545E-3,-6.118526459E-3,2.646215916E-2,2.871126805E-2
7.823333583E0,6.732686813E-3,-2.763056075E-3,2.406830907E-2,2.514452330E-2
7.833386583E0,-1.077260405E-2,2.467150418E-3,1.254227757E-2,1.671659523E-2
7.843439583E0,-1.821501537E-4,-4.505480658E-3,1.718379736E-2,1.776556856E-2
7.853492583E0,-5.539779446E-3,-3.877334381E-3,1.942912817E-2,2.057216322E-2
7.863545583E0,6.767054623E-3,-8.545321953E-3,2.511729956E-2,2.738054588E-2
7.873598583E0,5.425507493E-3,1.997862940E-2,1.718262792E-2,2.690398607E-2
7.883651583E0,6.784440953E-3,-4.502721503E-4,1.718379736E-2,1.848010486E-2
7.893704583E0,-7.958089054E-3,-2.582614655E-3,1.104714453E-2,1.385786716E-2
7.903757583E0,-4.412670956E-3,3.866480486E-3,2.167504370E-2,2.245504077E-2
7.913809583E0,-1.358336519E-2,1.053120084E-3,8.801229000E-3,1.621969493E-2
7.923862583E0,-2.336945088E-3,7.260880535E-3,2.556753516E-2,2.668108980E-2
7.933915583E0,9.788204741E-3,9.517924050E-3,1.299368262E-2,1.884769531E-2
7.943968583E0,8.948134583E-3,1.081689214E-3,6.407963634E-3,1.105898558E-2
7.954021583E0,-5.869256915E-3,1.186606536E-2,2.366368175E-3,1.344809957E-2
7.964074583E0,1.088079010E-2,1.170695714E-2,1.254286230E-2,2.031668854E-2
7.974127583E0,-2.078787091E-3,2.812181823E-3,2.661243260E-2,2.684122373E-2
7.984180583E0,-7.301929817E-3,-1.655310206E-4,1.134184420E-2,1.349010784E-2
7.994233583E0,-1.324523966E-2,-1.730800501E-2,1.313693941E-2,2.544764406E-2
8.004286583E0,8.156420442E-3,1.664766250E-3,1.927476168E-2,2.099559665E-2
8.014339583E0,1.756190665E-3,9.867085051E-3,-5.725008845E-3,1.154206651E-2
8.024392583E0,-1.041441070E-2,7.714487426E-3,1.852280974E-2,2.260680754E-2
8.034445583E0,2.695014813E-3,5.628219154E-4,9.692929387E-3,1.007634624E-2
8.044498583E0,1.781309709E-3,9.184212489E-3,1.463148773E-2,1.736672843E-2
8.054551583E0,7.784014475E-3,1.163603224E-2,2.899809659E-2,3.220058591E-2
8.064604583E0,-4.101447764E-3,-4.359336812E-3,2.615401089E-2,2.683016916E-2
8.074657583E0,5.004409323E-4,-1.020320859E-2,2.870105803E-2,3.046484267E-2
8.084710583E0,-6.205972597E-3,-3.506109277E-3,6.847089529E-3,9.883801554E-3
8.094762583E0,-4.115896497E-3,4.927613083E-3,6.250088811E-3,8.960222364E-3
8.104815583E0,1.095325332E-2,6.162471939E-3,1.178798676E-2,1.723097358E-2
8.114868583E0,-6.272279109E-3,4.519258160E-4,2.496059418E-2,2.574057078E-2
8.124921583E0,-1.266037077E-2,6.088230573E-3,2.181830049E-2,2.594975483E-2
8.134974583E0,-1.700845826E-3,3.419698393E-3,1.837487519E-2,1.876761178E-2
8.145027583E0,-1.341996863E-2,7.183953105E-3,1.493144989E-2,2.132259215E-2
8.155080583E0,-2.553938173E-2,7.195327766E-3,9.842033386E-3,2.830014809E-2
8.165133583E0,5.889539444E-4,8.215292310E-3,1.627923310E-2,1.824421346E-2
8.175186583E0,-3.779311577E-3,2.067807516E-2,8.796551228E-3,2.278695464E-2
8.185239583E0,2.194409999E-4,7.002323968E-3,1.029636204E-2,1.245374508E-2
8.195292583E0,-7.940040344E-3,6.700890865E-3,1.314044774E-2,1.675164308E-2
8.205345583E0,3.196568016E-3,1.291213224E-2,1.299192846E-2,1.859385412E-2
8.215398583E0,1.032530348E-2,1.723584672E-2,2.182414770E-2,2.966445224E-2
8.225451583E0,-2.977912700E-3,7.807458155E-3,5.954804420E-3,1.026080224E-2
8.235504583E0,8.248614016E-3,3.976545185E-3,4.010020494E-3,9.996639894E-3
8.245557583E0,-7.417022892E-3,7.833514810E-3,1.613539159E-2,1.940945761E-2
8.255610583E0,-5.788154206E-3,9.349633874E-3,2.002905250E-2,2.284909903E-2
8.265662583E0,-3.382346448E-3,1.250127397E-2,6.255351305E-3,1.438233425E-2
8.275715583E0,-3.367399503E-3,9.171878519E-3,1.328896701E-2,1.649422260E-2
8.285768583E0,9.301999338E-4,2.508762494E-2,1.059632421E-2,2.724951896E-2
8.295821583E0,-9.978272797E-4,9.121172195E-3,2.197383642E-2,2.381262120E-2
8.305874583E0,-2.623098914E-3,-4.901519883E-3,1.508990943E-2,1.608138401E-2
8.315927583E0,-2.371081579E-2,7.656380720E-4,1.718613625E-2,2.929423605E-2
8.325980583E0,-2.531351247E-2,3.498188127E-3,1.628741920E-2,3.030332091E-2
8.336033583E0,2.172696001E-3,9.629505370E-3,1.149738014E-2,1.515380255E-2
8.346086583E0,-1.706533757E-2,9.239359042E-3,1.643593848E-2,2.543091771E-2
8.356139583E0,1.187069573E-3,4.481543619E-3,-7.816557884E-3,9.088011033E-3
8.366192583E0,4.256451798E-3,2.715520039E-3,1.373861790E-2,1.463697553E-2
8.376245583E0,-1.187685415E-2,-2.634992916E-3,7.453445792E-3,1.426733004E-2
8.386298583E0,-5.388304512E-4,1.239248835E-2,1.165350080E-3,1.245881803E-2
8.396351583E0,1.958719485E-2,1.817113627E-3,4.310567379E-3,2.013805093E-2
8.406404583E0,1.907137679E-2,7.020176249E-3,1.074542820E-2,2.298835606E-2
8.416457583E0,-2.295059695E-3,1.383581872E-2,8.648031950E-3,1.647682115E-2
8.426510583E0,7.310642967E-3,6.765721869E-3,1.209379613E-2,1.566781408E-2
8.436563583E0,1.396376197E-2,8.445535563E-3,2.556753516E-2,3.033170904E-2
8.446616583E0,-6.038470996E-3,1.357893409E-2,1.329481423E-2,1.993997664E-2
8.456669583E0,-2.641801439E-3,1.093138793E-2,1.299485207E-2,1.718547460E-2
8.466721583E0,-3.602955499E-3,1.033915635E-2,1.584127665E-2,1.925682965E-2
8.476774583E0,-5.938718867E-3,9.063960845E-3,2.287547708E-2,2.531227409E-2
8.486827583E0,-1.648754815E-2,-5.168207735E-3,3.514995217E-2,3.916718975E-2
8.496880583E0,-1.285577741E-2,6.265309844E-3,1.763578713E-2,2.270564044E-2
8.506933583E0,-7.081949455E-3,-6.516813207E-4,2.369876504E-3,7.496333189E-3
8.516986583E0,-3.441958926E-3,1.251493271E-2,1.119975686E-2,1.714366284E-2
8.527039583E0,-5.604287111E-5,2.365633618E-2,1.419470072E-2,2.758831113E-2
8.537092583E0,-4.822820015E-3,1.059024858E-2,1.704171002E-2,2.063571754E-2
8.547145583E0,7.009937340E-3,1.571393525E-3,2.672177553E-3,7.664791713E-3
8.557198583E0,-6.605302594E-3,8.080221629E-3,2.333039045E-2,2.555830829E-2
8.567251583E0,-4.472113556E-3,1.520868100E-2,2.123357892E-2,2.649846507E-2
8.577304583E0,-1.065195955E-2,4.106481280E-4,1.015602887E-2,1.472337585E-2
8.587357583E0,-1.400509561E-2,8.669091063E-3,1.000809431E-2,1.927324038E-2
8.597410583E0,-1.053674085E-2,-7.638775120E-3,1.704346418E-2,2.144419419E-2
8.607463583E0,-2.488770841E-3,3.578313254E-4,2.737081647E-2,2.748606225E-2
8.617516583E0,-1.397107555E-2,1.638739745E-2,1.045599103E-2,2.393878643E-2
8.627569583E0,-1.329341295E-2,8.514642343E-3,6.565253735E-3,1.709726641E-2
8.637622583E0,-7.960383401E-3,1.689836187E-2,1.928879499E-2,2.685106981E-2
8.647675583E0,-8.512754560E-3,1.545692272E-2,3.271517158E-3,1.794676223E-2
8.657727583E0,1.146596620E-2,-6.544514392E-3,1.839007795E-2,2.263833069E-2
8.667780583E0,-4.410413440E-3,1.241674516E-2,2.482493877E-2,2.810524670E-2
8.677833583E0,1.556748762E-2,1.587552854E-2,1.644003153E-2,2.765237266E-2
8.687886583E0,8.730893962E-3,9.580562348E-3,5.662443638E-3,1.414492673E-2
8.697939583E0,-1.124422211E-3,5.388428494E-3,1.920225620E-3,5.829815896E-3
8.707993083E0,1.294991387E-3,1.521427240E-3,3.264500499E-3,3.827362936E-3
8.718046083E0,8.811495317E-3,-7.416288564E-3,1.868185401E-2,2.194665020E-2
8.728099083E0,-3.119876986E-3,1.184833185E-2,1.898181617E-2,2.259260820E-2
8.738152083E0,-1.154855355E-2,1.942546452E-2,5.712729692E-4,2.260628483E-2
8.748205083E0,-8.505766452E-3,4.675835632E-3,3.715905547E-3,1.039324087E-2
8.758258083E0,-8.199083417E-3,1.480716001E-3,9.704039097E-3,1.279006894E-2
8.768311083E0,-1.352323479E-2,1.280507337E-2,8.058632612E-3,2.029259330E-2
8.778364083E0,-5.873154107E-3,-1.585673522E-2,1.239843607E-2,2.096786131E-2
8.788417083E0,-8.684660416E-3,-3.270831937E-3,1.569100320E-2,1.822989988E-2
8.798470083E0,-1.431226059E-2,-1.201018095E-3,2.781637430E-2,3.130549356E-2
8.808523083E0,-5.385675050E-3,3.266711477E-3,1.045306742E-2,1.220424181E-2
8.818576083E0,-2.626348630E-2,3.844388975E-3,8.956180215E-3,2.801362532E-2
8.828629083E0,5.686895163E-3,6.713517196E-3,7.012565732E-3,1.125114074E-2
8.838682083E0,4.463493481E-3,4.040279835E-3,1.030747175E-2,1.193694304E-2
8.848735083E0,-8.622962584E-3,1.844202681E-2,3.124167323E-3,2.059670502E-2
8.858788083E0,-8.771225475E-3,2.322587147E-2,1.404910505E-2,2.852635369E-2
8.868841083E0,-9.792783157E-3,7.369437749E-3,1.778898418E-2,2.160220296E-2
8.878893083E0,3.002033035E-3,1.252535719E-2,2.048221171E-2,2.419540807E-2
8.888946083E0,6.007921578E-3,2.210147018E-2,1.134886086E-2,2.556103966E-2
8.898999083E0,-1.115568347E-2,1.137073310E-2,1.883271217E-2,2.466604737E-2
8.909052083E0,-6.389826987E-3,1.402417216E-2,6.708510518E-3,1.680807565E-2
8.919105083E0,6.439677355E-3,1.195151693E-2,-1.319775045E-2,1.893380095E-2
8.929158083E0,-1.252050926E-2,-7.991499268E-4,2.816603780E-3,1.285826775E-2
8.939211083E0,-3.171251114E-3,1.931751944E-2,8.953256607E-3,2.152636046E-2
8.949264083E0,5.238654121E-5,8.867247719E-3,1.434146583E-2,1.686144919E-2
8.959317083E0,-1.509034169E-3,-3.883702364E-3,4.315245152E-3,5.998472213E-3
8.969370083E0,-1.454299263E-2,-1.953317206E-3,1.404735088E-2,2.031359519E-2
8.979423083E0,4.058527831E-3,-8.541950667E-3,1.239843607E-2,1.559351745E-2
8.989476083E0,-1.220193879E-2,3.207325693E-3,9.253803492E-3,1.564631354E-2
8.999529083E0,-5.933639099E-3,1.293444302E-2,7.457538843E-3,1.606619976E-2
9.009582083E0,1.881308089E-3,3.034459158E-2,2.272520363E-2,3.795745564E-2
9.019635083E0,9.224678762E-3,1.583898344E-2,8.055709004E-3,2.002155194E-2
9.029688083E0,1.200380383E-2,1.712395476E-2,2.242407203E-2,3.066203091E-2
9.039741083E0,-7.526653046E-3,2.417927826E-2,1.808076024E-2,3.111594276E-2
9.049794083E0,-1.718450571E-3,1.164716022E-2,5.653672814E-3,1.306037633E-2
9.059847083E0,2.493541689E-3,4.297822276E-3,1.013965666E-2,1.129166346E-2
9.069900083E0,-7.585266815E-3,3.311104635E-3,1.927008390E-2,2.097226312E-2
9.079953083E0,-1.451982532E-2,2.750649014E-3,1.304513812E-3,1.483553685E-2
9.090006083E0,-9.380734895E-3,-4.441033378E-3,-8.724630475E-3,1.355876623E-2
9.100059083E0,-1.273835002E-2,-1.507217593E-2,-1.755626500E-2,2.641322564E-2
9.110112083E0,-8.973864616E-3,-8.825129494E-3,-2.638731480E-2,2.923531322E-2
9.120164083E0,1.694483268E-3,-1.956109252E-2,-1.051621735E-2,2.227326742E-2
9.130217083E0,4.441891046E-3,-1.790313279E-2,-3.327065706E-4,1.844893638E-2
9.140270083E0,3.688721134E-3,-2.471660083E-2,7.307265401E-3,2.603676531E-2
9.150323083E0,1.413695147E-2,-7.837781450E-3,1.224933207E-2,2.028128080E-2
9.160376083E0,9.450034678E-3,7.275215350E-3,1.090505719E-2,1.616020378E-2
9.170429083E0,-7.110838926E-3,4.039019030E-3,2.542603254E-2,2.670881570E-2
9.180482083E0,-1.472503861E-2,1.617534452E-2,1.943848372E-2,2.926300021E-2
9.190535083E0,7.645644456E-3,3.071992801E-2,1.434848249E-2,3.475699650E-2
9.200588083E0,-1.771730554E-2,2.937169712E-2,1.075595319E-2,3.594843580E-2
9.210641083E0,-1.118767985E-2,2.927836094E-2,2.198202252E-2,3.828310220E-2
9.220694083E0,8.681271430E-3,3.281576196E-2,1.434614360E-2,3.685173731E-2
9.230747083E0,5.124782594E-4,3.216107480E-2,2.108330548E-2,3.845910993E-2
9.240800083E0,-1.788659842E-2,3.832959495E-3,1.284867167E-2,2.235420196E-2
9.250853083E0,-1.308326608E-2,9.325020751E-3,1.569334209E-2,2.245904827E-2
9.260906083E0,-2.011098432E-2,4.648572989E-3,2.437119484E-2,3.193769026E-2
9.270959083E0,-1.580821818E-2,-1.324843850E-2,1.029928565E-2,2.305420069E-2
9.281012083E0,8.187928026E-3,-1.415458334E-2,2.515472174E-3,1.654454578E-2
9.291065083E0,6.718754566E-3,-5.958175706E-3,1.643944681E-2,1.873224311E-2
9.301118083E0,-1.054272283E-2,-2.633384932E-3,-2.868643999E-3,1.123889849E-2
9.311171083E0,-3.153992406E-3,-2.599871250E-2,-7.358720899E-3,2.720351986E-2
9.321224083E0,2.401127131E-2,-1.628897237E-2,1.494489849E-2,3.263773524E-2
9.331277083E0,1.816947004E-2,-1.904865716E-2,1.623771787E-3,2.637456380E-2
9.341330083E0,-2.432223297E-3,9.218327338E-3,1.270366073E-2,1.588320701E-2
9.351383083E0,-1.419279837E-3,4.289005771E-3,2.288424790E-2,2.332592394E-2
9.361436083E0,-1.821479395E-2,2.085756641E-2,1.614942491E-2,3.205652383E-2
9.371489083E0,3.288298495E-3,2.636208041E-2,1.719958484E-2,3.164803168E-2
9.381542083E0,-6.205922918E-3,6.511404533E-3,3.231989980E-2,3.354829044E-2
9.391595083E0,5.169662687E-3,1.520971340E-2,1.720075428E-2,2.353564832E-2
9.401647083E0,-5.201005247E-3,1.612660250E-2,3.231931508E-2,3.649186061E-2
9.411700083E0,-1.483933797E-2,1.402661154E-2,9.866006970E-3,2.267796014E-2
9.421753083E0,-1.570685807E-2,1.359738023E-2,1.435842276E-2,2.525387977E-2
9.431806083E0,1.739535807E-3,4.960065130E-3,5.975269675E-3,7.958145425E-3
9.441859083E0,5.021870885E-3,1.415464729E-3,2.767954946E-2,2.816700527E-2
9.451912083E0,-1.306531787E-2,-1.054746341E-3,6.574609280E-3,1.466425954E-2
9.461965083E0,-8.746708853E-3,-4.169521574E-3,7.385033369E-4,9.717778198E-3
9.472018083E0,4.931509133E-3,6.038246015E-3,3.584343195E-3,8.580659264E-3
9.482071083E0,8.699731272E-3,-1.871017646E-3,1.271535516E-2,1.551986753E-2
9.492124083E0,3.722541337E-3,2.775645861E-3,1.825383782E-2,1.883518302E-2
9.502177083E0,-1.220472878E-2,8.599609695E-3,1.690663934E-2,2.255533518E-2
9.512230083E0,-1.590182616E-2,1.209178615E-2,9.571307302E-3,2.215150765E-2
9.522283083E0,-5.079216424E-3,1.900111198E-2,1.915080070E-2,2.745166413E-2
9.532336083E0,-1.591794027E-2,1.495454639E-2,1.825266838E-2,2.846364669E-2
9.542389083E0,-9.078287665E-3,2.495197867E-2,1.136757195E-2,2.888318262E-2
9.552442083E0,6.391807274E-3,1.379373704E-2,1.001920402E-2,1.820732905E-2
9.562495083E0,-1.179957155E-2,-7.643864024E-4,1.825266838E-2,2.174796722E-2
9.572548083E0,-2.273420429E-3,1.692281968E-2,2.154582024E-2,2.749131928E-2
9.582601083E0,-8.011878299E-3,1.866440373E-2,3.731108308E-3,2.065118228E-2
9.592654083E0,-8.266823753E-4,3.521293765E-3,8.671420813E-3,9.395554930E-3
9.602707083E0,1.874632542E-4,-4.328063345E-3,2.169492424E-2,2.212322337E-2
9.612760083E0,-7.891951563E-3,8.435750613E-3,1.944900870E-2,2.262097981E-2
9.622813083E0,1.126034621E-3,6.226389315E-3,1.391228020E-2,1.528356694E-2
9.632866083E0,-8.588458301E-3,2.887894129E-3,6.281663775E-3,1.102546363E-2
9.642919083E0,2.930016066E-3,8.983689537E-3,1.736155272E-2,1.976651675E-2
9.652972083E0,-4.206868380E-3,7.529569231E-4,4.785361290E-3,6.415946413E-3
9.663025083E0,-6.253126622E-3,7.153520174E-3,3.141708970E-3,1.000723632E-2
9.673078083E0,4.572652261E-3,-1.101240842E-3,1.646400511E-2,1.712265588E-2
9.683131083E0,-8.248648848E-3,7.366779093E-3,2.260241210E-2,2.516304185E-2
9.693184083E0,-1.643382229E-2,1.136947230E-2,2.050735474E-2,2.863366923E-2
9.703237083E0,3.278764793E-3,6.302512754E-3,1.257326782E-2,1.444157295E-2
9.713290167E0,1.734626202E-3,-2.208073997E-2,4.639180899E-3,2.262940576E-2
9.723342167E0,3.542506196E-3,2.716132170E-3,-6.439538598E-3,7.835456685E-3
9.733395167E0,-9.051324235E-3,-8.213510737E-4,-1.078109622E-2,1.410081997E-2
9.743448167E0,-5.622564656E-4,-9.192307228E-3,1.511212885E-2,1.769720551E-2
9.753501167E0,-1.383030384E-3,7.384567419E-3,1.391520381E-2,1.581383907E-2
9.763554167E0,-9.151225399E-3,-5.061797546E-3,-1.526123285E-4,1.045896798E-2
9.773607167E0,-1.892503737E-3,1.693055810E-2,1.331937253E-2,2.162477868E-2
9.783660167E0,-8.615987609E-3,1.173043736E-2,2.499450803E-2,2.892341326E-2
9.793713167E0,9.134544275E-3,1.371433368E-2,2.918520749E-2,3.351565580E-2
9.803766167E0,2.136007863E-3,-5.812561763E-3,3.517392576E-2,3.571489125E-2
9.813819167E0,-2.967106200E-3,-7.053742921E-3,1.721186399E-2,1.883632848E-2
9.823872167E0,-1.209368421E-2,4.657782353E-3,1.646283567E-2,2.095178018E-2
9.833925167E0,3.273203086E-3,1.817862801E-3,2.484540403E-2,2.512593451E-2
9.843978167E0,7.932443246E-4,1.702512768E-2,5.384700894E-3,1.787398145E-2
9.854031167E0,-4.559356412E-3,-2.597369738E-3,5.087662339E-3,7.308787076E-3
9.864084167E0,2.592267700E-3,5.382599551E-3,4.490661621E-4,5.991150989E-3
9.874137167E0,-2.355281762E-2,1.424668612E-2,3.444594741E-3,2.774109797E-2
9.884190167E0,-1.214399654E-2,8.189281337E-3,4.496508837E-4,1.465411774E-2
9.894243167E0,2.935193764E-3,8.753775191E-3,1.961273074E-2,2.167724959E-2
9.904296167E0,-8.970674914E-3,9.949731790E-3,7.188566923E-3,1.520347544E-2
9.914349167E0,1.213982754E-3,2.776988894E-3,-7.181550264E-3,7.794875601E-3
9.924402167E0,4.309715707E-3,-7.631566599E-3,1.349537373E-3,8.867677788E-3
9.934455167E0,4.570916083E-3,1.088596238E-2,1.841463625E-2,2.187455780E-2
9.944508167E0,6.229565170E-6,1.704317182E-2,1.168039799E-2,2.066159340E-2
9.954561167E0,-1.749871646E-3,-2.282241359E-4,1.991444707E-2,1.999248206E-2
9.964614167E0,-7.878209464E-3,-2.922529746E-3,9.885302782E-3,1.297407321E-2
9.974667167E0,1.089151609E-2,1.516590497E-2,2.455538213E-2,3.084795922E-2
9.984720167E0,-3.406016822E-3,8.268456291E-3,6.595074534E-3,1.111140532E-2
9.994773167E0,2.018390749E-3,5.593501311E-3,1.917068124E-2,2.007177564E-2
1.000482617E1,-7.086829939E-3,1.208875291E-2,1.617632210E-2,2.140174064E-2
1.001487917E1,-2.330518290E-3,6.695719734E-3,4.049196839E-3,8.164555916E-3
1.002493217E1,-5.850456746E-3,1.100458777E-2,9.887641668E-3,1.590893629E-2
1.003498517E1,1.763438471E-2,6.234246511E-3,1.602429450E-2,2.462956288E-2
1.004503817E1,5.305502528E-3,9.037785418E-3,1.572316289E-2,1.889570781E-2
1.005509117E1,-7.950917649E-3,1.059223115E-3,1.721829593E-2,1.899496670E-2
1.006514317E1,2.713080939E-3,-6.506909486E-3,9.583586454E-3,1.189730258E-2
1.007519617E1,-5.470685799E-3,3.950726073E-3,1.961273074E-2,2.074116310E-2
1.008524917E1,-1.040389485E-2,-1.359843090E-4,2.696151137E-3,1.074843015E-2
1.009530217E1,-7.645339533E-3,-6.810215525E-3,5.242613554E-3,1.150283656E-2
1.010535517E1,-3.691181218E-4,-5.603204034E-3,6.889189482E-3,8.887804867E-3
1.011540817E1,-1.015332453E-3,-1.106300510E-2,7.189151645E-3,1.323272018E-2
1.012546117E1,-2.145002240E-3,3.652262259E-3,1.078109622E-2,1.158326767E-2
1.013551417E1,-1.526750376E-2,7.175337598E-3,1.811467409E-2,2.475325349E-2
1.014556717E1,-1.775073174E-2,1.003826229E-2,1.781529665E-2,2.707840434E-2
1.015562017E1,1.966258511E-2,1.603381449E-2,8.683699965E-3,2.681617246E-2
1.016567317E1,-7.357683931E-3,1.537119705E-2,1.212537110E-2,2.091491898E-2
1.017572617E1,1.593905020E-3,3.811863838E-3,2.499684691E-2,2.533600590E-2
1.018577917E1,1.223051934E-3,-3.692799909E-3,1.586583495E-2,1.633576891E-2
1.019583217E1,-2.516108572E-3,1.436400502E-2,7.631785870E-3,1.645902786E-2
1.020588517E1,-8.675183816E-3,1.180718207E-2,2.970385551E-4,1.465457589E-2
1.021593817E1,-4.458687230E-3,9.422998158E-3,1.002680540E-2,1.446408008E-2
1.022599117E1,-5.653080670E-3,-8.569999030E-3,1.137458861E-2,1.532264567E-2
1.023604417E1,-6.632270592E-3,4.809736870E-3,-5.688756108E-3,9.974092842E-3
1.024609717E1,-8.120205963E-3,-5.546467770E-3,1.018117189E-2,1.415476283E-2
1.025615017E1,-9.092575656E-3,6.613785625E-3,1.991269290E-2,2.286771591E-2
1.026620317E1,6.535489465E-3,6.186683066E-3,1.287907720E-2,1.571172490E-2
1.027625617E1,4.599827253E-3,-3.949922081E-3,1.482678473E-2,1.601854677E-2
1.028630917E1,3.426789855E-3,1.033745700E-2,1.356554031E-3,1.097479589E-2
1.029636217E1,-7.392694992E-4,-1.208581103E-2,1.587811410E-2,1.996817105E-2
1.030641517E1,-8.238558975E-3,-1.263135625E-2,9.891734719E-3,1.803528293E-2
1.031646817E1,-3.633590569E-3,8.914792892E-3,1.618158460E-2,1.882870661E-2
1.032652117E1,3.854068001E-3,1.532208044E-3,1.812812269E-2,1.859651402E-2
1.033657417E1,-1.789846073E-2,2.177557927E-3,3.040435195E-2,3.534856818E-2
1.034662717E1,-2.247647427E-3,1.467726046E-2,1.962793350E-2,2.461157588E-2
1.035668017E1,-9.147291662E-3,6.214658339E-3,1.693470597E-2,2.022570615E-2
1.036673317E1,8.451667145E-3,1.957046634E-2,1.813396990E-2,2.798704512E-2
1.037678617E1,-3.034961596E-3,1.778845428E-2,1.349595845E-2,2.253399636E-2
1.038683917E1,-1.584582194E-2,4.287306424E-3,4.065569043E-3,1.691153219E-2
1.039689217E1,-1.537322188E-2,1.028395498E-2,7.724171877E-4,1.851195045E-2
1.040694517E1,-1.115924548E-2,9.463243447E-3,1.469463766E-2,2.073678162E-2
1.041699817E1,1.188371321E-2,4.337007757E-3,-3.414773941E-3,1.310316592E-2
1.042705117E1,4.312370937E-3,-8.934070431E-3,-3.562708497E-3,1.054073287E-2
1.043710417E1,-1.429277349E-3,-1.256237738E-2,-5.957143307E-3,1.397654161E-2
1.044715717E1,-1.222801600E-2,-4.092502780E-3,9.910445809E-3,1.626314516E-2
1.045721017E1,-8.379706421E-3,1.129283722E-2,1.485075831E-2,2.045220464E-2
1.046726317E1,2.627829506E-4,1.056266617E-2,-2.959860563E-3,1.097268181E-2
1.047731517E1,1.435133643E-2,8.053278755E-3,1.320827544E-2,2.110153303E-2
1.048736817E1,-2.494069023E-3,5.540748462E-3,1.021625519E-2,1.188663720E-2
1.049742117E1,-5.352232288E-3,1.018886464E-2,1.384620667E-3,1.159208900E-2
1.050747417E1,7.874758237E-3,1.564605273E-2,7.371000051E-3,1.900374766E-2
1.051752717E1,-3.930310782E-3,5.915847346E-3,8.416482210E-3,1.101280007E-2
1.052758017E1,1.871404082E-3,1.231569797E-2,1.545009792E-2,1.984651343E-2
1.053763317E1,-2.580105320E-3,1.960341174E-2,1.200550318E-2,2.313185686E-2
1.054768617E1,-4.350097183E-3,8.330546413E-3,1.380235255E-2,1.669809225E-2
1.055773917E1,2.525993165E-3,-4.506851099E-3,2.276321054E-3,5.645705079E-3
1.056779217E1,-7.945761936E-3,6.406045016E-3,6.465266347E-3,1.208189614E-2
1.057784517E1,-3.492648689E-3,-4.745746404E-4,7.810125947E-3,8.568657028E-3
1.058789817E1,-7.328457561E-3,-1.615662429E-2,5.566549301E-3,1.859379654E-2
1.059795117E1,-5.686265331E-3,-1.512356747E-2,-5.510416031E-3,1.707104541E-2
1.060800417E1,-2.373320737E-3,-3.067705147E-3,6.166473627E-3,7.284837897E-3
1.061805717E1,-3.152995695E-3,-2.529838052E-2,1.499927759E-2,2.957917793E-2
1.062811017E1,-8.423485165E-4,-1.044325506E-2,1.380118310E-2,1.732754404E-2
1.063816317E1,3.431479904E-3,9.945547376E-3,1.349888206E-2,1.711457810E-2
1.064821617E1,8.355634622E-3,-2.967096493E-4,1.754164696E-2,1.943229386E-2
1.065826917E1,-9.674038998E-3,7.121360488E-3,1.230371118E-2,1.719540969E-2
1.066832217E1,-6.465300322E-4,5.514088813E-3,1.110561669E-2,1.241603393E-2
1.067837517E1,5.700659532E-3,-6.414505206E-3,-1.222068071E-4,8.582443163E-3
1.068842817E1,-3.143093116E-3,1.941726929E-2,6.161211133E-3,2.061237258E-2
1.069848117E1,1.742892389E-3,1.628696239E-2,2.142712176E-2,2.697080578E-2
1.070853367E1,-3.262269535E-3,5.993852858E-3,3.100427628E-2,3.174639857E-2
1.071858667E1,-4.292551217E-3,1.124266081E-2,3.099901378E-2,3.325300398E-2
1.072863967E1,-2.391195087E-2,1.176819758E-2,3.084347785E-2,4.076262987E-2
1.073869267E1,-1.837071390E-3,1.688902460E-2,2.065996706E-2,2.674786388E-2
1.074874567E1,3.314073638E-4,1.727543419E-2,-7.485605478E-3,1.883042078E-2
1.075879867E1,8.570223725E-4,2.272764302E-2,3.438747525E-3,2.300228747E-2
1.076885167E1,1.073627480E-2,3.050318817E-2,-2.551140189E-3,3.243794693E-2
1.077890467E1,1.246285137E-2,1.013011839E-2,5.679985285E-3,1.703538071E-2
1.078895767E1,-1.657078646E-2,-1.441253691E-2,2.832975984E-3,2.214357553E-2
1.079901067E1,-9.170490947E-3,3.447152898E-3,5.073044300E-3,1.103252219E-2
1.080906367E1,-1.562253825E-3,1.484349498E-2,6.943685532E-2,7.102286150E-2
1.081911667E1,-1.426427345E-2,-4.123173254E-3,-5.560117364E-3,1.585512409E-2
1.082916967E1,4.555000979E-4,-1.366463235E-2,-3.010731339E-2,3.306629670E-2
1.083922267E1,-7.983081904E-3,1.407990343E-2,6.264122128E-3,1.735547474E-2
1.084927567E1,-2.402445495E-2,3.456216082E-3,1.319716573E-3,2.430764318E-2
1.085932867E1,5.384789973E-3,-1.966330002E-2,-2.723048329E-3,2.056833301E-2
1.086938167E1,1.913996394E-2,-3.012586003E-3,1.344040990E-2,2.358089295E-2
1.087943467E1,1.834702326E-2,5.586375017E-4,3.408926725E-3,1.866938991E-2
1.088948767E1,1.257385939E-2,-9.905694947E-3,2.654635906E-4,1.600922244E-2
1.089954067E1,1.524419142E-2,2.758743754E-3,1.448472261E-2,2.120856497E-2
1.090959367E1,9.560388312E-3,-8.278378285E-4,2.961030006E-3,1.004261116E-2
1.091964667E1,-1.730815804E-3,-1.743721934E-3,-3.176207542E-3,4.015542788E-3
1.092969967E1,-3.830784206E-3,1.909506029E-2,1.044488132E-2,2.209958780E-2
1.093975267E1,8.591000470E-3,8.368187863E-4,5.954219699E-3,1.048609970E-2
1.094980567E1,-1.119376346E-2,3.289789706E-3,7.749899626E-3,1.400656992E-2
1.095985867E1,-2.395198602E-2,1.590734105E-2,3.857408166E-3,2.901070029E-2
1.096991167E1,-4.345986717E-3,8.076548846E-3,2.810171843E-3,9.592460977E-3
1.097996467E1,-1.380081537E-2,5.108310319E-3,2.511379123E-2,2.910772834E-2
1.099001767E1,-1.761919337E-2,-2.275845967E-5,2.241764009E-2,2.851292830E-2
1.100007067E1,-1.307505942E-2,3.869413231E-3,-2.582715154E-3,1.387803859E-2
1.101012367E1,-7.039950573E-4,-2.119643083E-3,-4.680696130E-3,5.186271503E-3
1.102017667E1,-4.851372015E-3,1.889290195E-4,1.088400722E-2,1.191776479E-2
1.103022967E1,1.116165860E-2,-8.267076714E-3,-4.984751344E-3,1.475719912E-2
1.104028267E1,1.283282937E-2,-1.440811495E-2,4.445638061E-3,1.979997434E-2
1.105033567E1,1.700986782E-2,-3.145518797E-3,1.043084800E-2,2.019981390E-2
1.106038867E1,1.982445477E-2,3.286436694E-3,8.185517192E-3,2.169821109E-2
1.107044167E1,3.101972115E-2,-8.599609695E-3,2.105699301E-2,3.846522249E-2
1.108049467E1,2.512475019E-2,-2.117377287E-2,9.529207349E-3,3.421092694E-2
1.109054767E1,1.325661775E-2,1.869254345E-3,1.027297318E-2,1.687501123E-2
1.110060067E1,6.621076372E-3,1.368791157E-2,3.481783032E-2,3.799314259E-2
1.111065367E1,-1.505868964E-2,8.099800665E-3,2.209019601E-2,2.793470359E-2
1.112070667E1,-2.282275164E-2,2.065390058E-2,1.882803440E-3,3.083839409E-2
1.113075967E1,-3.447226445E-2,1.259382444E-2,-3.359225392E-3,3.685411545E-2
1.114081267E1,-3.050433477E-2,3.234926378E-3,2.657501042E-2,4.058583949E-2
1.115086567E1,-3.398552029E-2,1.030764534E-2,3.345835268E-2,4.879266857E-2
1.116091867E1,-1.521891135E-2,-1.246963506E-2,3.315488219E-2,3.855325245E-2
1.117097167E1,-1.044136157E-2,-1.221341738E-2,2.791402280E-2,3.220841916E-2
1.118102467E1,1.349531548E-2,4.131222311E-3,-2.280414104E-4,1.411532999E-2
1.119107767E1,6.357078011E-3,5.405394556E-3,-1.578748226E-3,8.492536553E-3
1.120113067E1,1.085700496E-2,6.031320719E-3,8.162713051E-4,1.244659331E-2
1.121118367E1,3.870406344E-2,-7.515462823E-3,5.754829645E-3,3.984475840E-2
1.122123667E1,2.604924295E-2,-7.223028950E-3,5.116313696E-4,2.703695567E-2
1.123128967E1,2.645280361E-2,-1.563912744E-2,2.455830574E-3,3.082797803E-2
1.124134267E1,1.606448725E-2,-8.869266836E-3,1.233470142E-2,2.211055187E-2
1.125139567E1,2.108106024E-2,-1.261946996E-2,-1.191487134E-2,2.730615831E-2
1.126144867E1,1.819095856E-2,-1.197084929E-2,-6.975728273E-3,2.286641622E-2
1.127150167E1,-2.310365781E-2,-1.763514759E-2,7.693181634E-3,3.006596878E-2
1.128155467E1,-2.634317289E-2,-4.084791765E-3,-5.181217790E-3,2.715682786E-2
1.129160767E1,-3.461819359E-2,5.013658516E-3,1.547407150E-2,3.824922206E-2
1.130166067E1,-1.489208739E-2,1.022192881E-2,3.946285844E-3,1.848878762E-2
1.131171367E1,-2.525670768E-2,-1.477783257E-3,3.794842958E-3,2.558292320E-2
1.132176667E1,-1.913646361E-2,7.031176323E-3,-1.142545938E-3,2.041928233E-2
1.133181967E1,-1.424176167E-2,7.650935501E-3,2.250593305E-2,2.771067685E-2
1.134187267E1,8.426067875E-3,4.852512907E-3,2.549912274E-2,2.729012206E-2
1.135192567E1,8.063332083E-3,2.066122787E-2,1.756211221E-2,2.829012985E-2
1.136197867E1,1.031447471E-2,7.518258523E-3,1.082319617E-2,1.673481924E-2
1.137203167E1,1.932192998E-2,7.122219298E-3,1.112198889E-2,2.340430778E-2
1.138208467E1,3.220495176E-2,1.695165376E-2,1.531151891E-2,3.948366870E-2
1.139213767E1,1.659568624E-2,8.056503860E-3,1.686921716E-3,1.852484173E-2
1.140219067E1,1.352746489E-2,-3.761915825E-3,9.769527912E-3,1.710520367E-2
1.141224367E1,1.873745281E-2,-1.976642115E-3,1.246450961E-2,2.259122067E-2
1.142229667E1,5.187940375E-3,2.655156674E-3,1.455781281E-2,1.568102344E-2
1.143234967E1,-1.204336390E-2,-7.537216293E-3,1.530216336E-2,2.088081529E-2
1.144240267E1,-7.519598129E-3,-9.554898553E-3,1.230955839E-2,1.730218686E-2
1.145245567E1,-2.769092298E-3,9.642058611E-4,-9.246202111E-3,9.699990648E-3
1.146250867E1,-4.969326572E-2,4.113086807E-3,-1.283931613E-2,5.148967061E-2
1.147256167E1,-2.012809656E-2,1.153626412E-2,-2.509624958E-3,2.333503543E-2
1.148261467E1,-3.240172884E-2,4.128856016E-3,1.383451223E-3,3.269301793E-2
1.149266767E1,-1.548479064E-2,5.742322085E-3,1.650201201E-2,2.334672149E-2
1.150272067E1,-2.996086805E-2,-6.733507365E-3,6.326687336E-3,3.135316106E-2
1.151277367E1,8.972084185E-4,4.680979354E-3,-2.653466463E-3,5.455037574E-3
1.152282667E1,1.043955487E-2,6.691681501E-4,9.171942472E-3,1.391246278E-2
1.153287967E1,1.311714338E-3,4.882753976E-3,-5.944864154E-3,7.804056042E-3
1.154293267E1,1.550164135E-2,1.461539875E-2,3.188486695E-3,2.154245141E-2
1.155298567E1,8.672212813E-3,1.363955327E-2,1.576350868E-2,2.257726499E-2
1.156303867E1,1.263229500E-2,-7.832518956E-3,1.725864172E-2,2.277682911E-2
1.157309167E1,1.387444575E-2,-2.429572921E-3,1.845381260E-2,2.321521632E-2
1.158314467E1,-2.117614830E-3,-6.470099436E-3,2.585054040E-3,7.282100224E-3
1.159319767E1,-4.720863760E-3,4.262364395E-3,-1.905022860E-3,6.639534394E-3
1.160325067E1,-1.599341160E-2,1.498778416E-3,1.261536777E-2,2.042505950E-2
1.161330367E1,-2.037307891E-2,6.884877160E-3,3.783733249E-3,2.183530433E-2
1.162335667E1,-1.371015840E-2,6.116461661E-4,-5.494628549E-3,1.478287852E-2
1.163340967E1,-1.892857225E-2,-5.019907728E-3,3.787241578E-3,1.994576446E-2
1.164346267E1,-2.283954182E-2,-4.982650001E-3,2.040444374E-2,3.102922487E-2
1.165351567E1,-2.380169888E-2,1.294208094E-3,1.861051798E-2,3.024148183E-2
1.166356867E1,1.607377998E-2,-2.137460645E-2,3.792504072E-3,2.701153996E-2
1.167362167E1,-1.383070926E-3,9.511464704E-3,7.386787534E-3,1.212210692E-2
1.168367467E1,-1.338138157E-3,1.132144290E-2,8.136985302E-3,1.400629190E-2
1.169372767E1,-1.860156900E-4,9.001642317E-3,3.497804403E-3,9.659130493E-3
1.170378067E1,1.719240145E-2,4.305725154E-3,2.819702804E-2,3.330450911E-2
1.171383342E1,1.528559244E-3,-1.519883210E-3,1.083489060E-2,1.104723462E-2
1.172388642E1,1.218169166E-3,5.219562734E-3,1.143598437E-2,1.262970743E-2
1.173393942E1,6.903986249E-3,8.629640630E-3,6.613200903E-4,1.107127218E-2
1.174399242E1,8.687951759E-4,4.891287256E-4,-7.121908665E-3,7.191358355E-3
1.175404542E1,7.963332133E-3,-5.590842655E-3,-8.338129520E-4,9.765624624E-3
1.176409842E1,-1.424000750E-2,-1.453182925E-2,2.912498116E-3,2.055321192E-2
1.177415142E1,-1.239875812E-2,-2.329695169E-3,9.801687598E-3,1.597591194E-2
1.178420442E1,-1.895893209E-2,5.438330825E-3,1.010340393E-2,2.216067055E-2
1.179425742E1,-1.261684785E-2,-1.627079118E-4,2.621891499E-3,1.288742172E-2
1.180431042E1,-1.828070418E-2,5.812360765E-3,1.205520451E-2,2.265602875E-2
1.181436342E1,-1.510438700E-2,-1.057825265E-3,1.789481878E-2,2.344111858E-2
1.182441642E1,-7.321885724E-3,1.020444199E-2,1.355560005E-2,1.847958169E-2
1.183446942E1,-1.564366131E-2,9.524474759E-4,1.879412055E-2,2.447141726E-2
1.184452242E1,-1.729217185E-2,2.663224004E-4,1.385614693E-2,2.216039130E-2
1.185457542E1,-5.300126402E-3,1.267335570E-2,1.161081612E-2,1.798655986E-2
1.186462842E1,1.546775605E-2,2.326561427E-3,2.149085641E-2,2.658046792E-2
1.187468142E1,-7.398058270E-4,7.593413517E-3,8.769069314E-3,1.162341680E-2
1.188473442E1,-9.383073781E-4,8.856320735E-3,1.475778759E-2,1.723679588E-2
1.189478742E1,2.217923586E-2,1.114745169E-2,1.505891919E-2,2.903369129E-2
1.190484042E1,2.138882364E-3,-1.816538041E-3,1.535712719E-2,1.561140557E-2
1.191489342E1,-1.977867289E-2,5.610869369E-3,1.056591868E-2,2.311528486E-2
1.192494642E1,-2.427673490E-2,-2.476103967E-3,1.282879114E-3,2.443638122E-2
1.193499942E1,9.253618482E-4,6.131901965E-3,1.011334419E-2,1.186323088E-2
1.194505242E1,-1.639510961E-2,-5.123650124E-3,-1.264752746E-3,1.722355971E-2
1.195510542E1,-1.498489710E-2,-1.534763460E-2,1.175641179E-2,2.446038117E-2
1.196515842E1,1.480039917E-3,-1.441411749E-3,3.523532152E-3,4.084539731E-3
1.197521142E1,7.226684602E-3,-4.997560401E-3,-5.905103087E-3,1.058635078E-2
1.198526442E1,3.575048749E-3,-6.367279803E-3,5.020419359E-3,8.861593321E-3
1.199531742E1,-1.477841272E-2,-1.143477838E-2,1.744458318E-2,2.556304210E-2
1.200537142E1,-1.652334065E-3,-2.076583821E-3,1.429995060E-2,1.454410518E-2
1.201542442E1,1.390358818E-3,-2.122722007E-4,1.280189395E-2,1.287892254E-2
1.202547742E1,9.722777596E-3,1.388523683E-2,-5.610403419E-3,1.785521864E-2
1.203553042E1,2.877772051E-2,1.138450147E-2,2.472202778E-3,3.104635015E-2
1.204558342E1,7.980150302E-3,5.728106042E-3,4.267882705E-3,1.071022037E-2
1.205563642E1,3.017934150E-4,1.245823299E-2,3.068618774E-3,1.283413688E-2
1.206568942E1,-9.382432529E-3,2.161441538E-3,1.159795225E-2,1.507363148E-2
1.207574242E1,-1.172653846E-2,1.803437538E-2,1.416780353E-3,2.155823893E-2
1.208579542E1,-1.171698420E-2,4.775759066E-3,1.683179498E-2,2.105718204E-2
1.209584842E1,-2.790650137E-2,-4.266859442E-3,-3.826417923E-3,2.848895193E-2
1.210590142E1,-1.359539994E-2,5.028642006E-3,3.658018112E-3,1.495002463E-2
1.211595442E1,-1.959061182E-2,-2.761767861E-3,-1.205929756E-2,2.316993938E-2
1.212600742E1,-2.114624413E-3,-8.222710965E-3,1.188972831E-2,1.460993673E-2
1.213606042E1,1.042976992E-2,-7.133082328E-3,9.045057893E-3,1.553943488E-2
1.214611342E1,-5.740928233E-3,-1.603436267E-2,7.247623801E-3,1.850910841E-2
1.215616642E1,-3.351126085E-3,-7.982362993E-3,1.248731375E-2,1.519477442E-2
1.216621942E1,-4.891909665E-4,-1.027149310E-2,-4.726304412E-3,1.131728023E-2
1.217627242E1,5.809460569E-3,-1.313981733E-2,-1.565124214E-2,2.124537625E-2
1.218632542E1,9.372571062E-3,7.793333475E-4,-1.130793035E-2,1.470788012E-2
1.219637842E1,1.007109349E-2,-6.377466749E-3,7.257564068E-3,1.395604681E-2
1.220643142E1,-1.521990263E-3,-8.342259116E-3,9.654922485E-3,1.285018559E-2
1.221648442E1,2.740231378E-3,5.257852860E-3,8.908817768E-3,1.070144470E-2
1.222653742E1,-1.429732735E-3,-9.078076389E-3,9.062599540E-3,1.290683218E-2
1.223659042E1,-1.432944706E-2,5.358242244E-4,1.370470405E-2,1.983529868E-2
1.224664342E1,-1.487496145E-2,1.392120634E-2,2.523190498E-2,3.243013249E-2
1.225669642E1,-3.184583907E-2,5.192327499E-3,6.673427224E-3,3.294923917E-2
1.226674942E1,-2.611317403E-3,1.666672077E-2,8.384907246E-4,1.689087406E-2
1.227680242E1,-1.566365034E-2,9.104635539E-3,1.416195631E-2,2.299576780E-2
1.228685542E1,-1.343292729E-2,-1.451475355E-2,1.595997512E-2,2.541342976E-2
1.229690842E1,-2.020515190E-2,-1.360816103E-2,2.164814651E-2,3.258945316E-2
1.230696142E1,-1.500395536E-2,-6.468445770E-3,-2.301464081E-3,1.650018800E-2
1.231701442E1,-2.128765082E-3,7.335925894E-3,1.743639708E-3,7.835032158E-3
1.232706742E1,1.229355849E-2,1.272718663E-2,1.461920857E-2,2.295286734E-2
1.233712042E1,1.423661795E-2,-6.370605407E-3,9.980612397E-3,1.851697944E-2
1.234717342E1,2.320512928E-3,8.479833137E-3,6.988592148E-3,1.123088467E-2
1.235722642E1,-2.982115100E-3,-1.678629633E-2,1.073256433E-2,2.014598451E-2
1.236727942E1,-1.989618765E-3,-2.169609368E-3,-7.975602150E-3,8.501530291E-3
1.237733242E1,-8.734891653E-3,-8.968395414E-3,-3.332328200E-3,1.295510941E-2
1.238738542E1,-1.804631192E-3,-1.110998383E-3,-1.275920928E-2,1.293400296E-2
1.239743842E1,-1.509660575E-3,1.021554256E-3,4.159709215E-3,4.541566790E-3
1.240749142E1,5.188861425E-4,6.863717549E-4,3.559492528E-2,3.560532341E-2
1.241754442E1,-1.191887417E-2,-3.496589279E-3,1.853275001E-2,2.231027837E-2
1.242759742E1,-1.173710684E-2,6.340245567E-3,-3.318879604E-3,1.374675790E-2
1.243765042E1,-4.213739429E-3,-1.871255189E-3,-2.157914937E-2,2.206619322E-2
1.244770342E1,-1.410922859E-2,-1.200506464E-5,-1.244462907E-2,1.881327372E-2
1.245775742E1,-1.948361063E-3,-1.114821914E-2,-1.633068860E-2,1.986882711E-2
1.246781042E1,-1.238765298E-2,-1.471046168E-2,-1.707270026E-2,2.571631240E-2
1.247786342E1,3.472577436E-3,-2.329979307E-2,-6.888604760E-3,2.454367590E-2
1.248791642E1,-1.830848302E-3,-2.033054955E-2,-1.646108150E-2,2.622309011E-2
1.249796942E1,-1.512854674E-2,-1.494162770E-2,-2.243985951E-2,3.091395251E-2
1.250802242E1,-1.225661597E-2,-2.822063617E-2,-5.191742778E-2,6.034938482E-2
1.251807542E1,-5.600490561E-3,-4.491012454E-2,-5.340612888E-2,7.000356693E-2
1.252812842E1,2.635147091E-4,-2.429435877E-2,1.486748135E-1,1.506468900E-1
1.253818142E1,-3.175311274E-2,3.819048604E-2,2.211206460E-1,2.266299042E-1
1.254823442E1,-3.300228357E-2,7.105379317E-2,9.160248041E-3,7.887776866E-2
1.255828742E1,-2.188912717E-2,1.025904767E-1,-5.356108010E-2,1.177825501E-1
1.256834042E1,-9.475474635E-3,1.112609473E-1,1.709199607E-2,1.129642393E-1
1.257839342E1,5.087535859E-4,6.614900250E-2,4.328635275E-2,7.905477656E-2
1.258844642E1,1.475825810E-2,2.770884035E-2,7.381992817E-2,8.021825111E-2
1.259849942E1,3.159235542E-2,9.119920526E-3,7.246337414E-2,7.957506182E-2
1.260855242E1,2.971880246E-2,-1.563660583E-2,1.722238898E-2,3.774018208E-2
1.261860542E1,1.454603958E-2,-2.467057228E-2,-2.439516842E-2,3.762111969E-2
1.262865842E1,-7.568297327E-3,-4.096398488E-2,-1.721244872E-2,4.507322456E-2
1.263871142E1,-1.613057335E-2,-4.441292848E-2,-5.104209960E-2,6.955572977E-2
1.264876442E1,-4.201260135E-3,-5.308343567E-2,-2.963661253E-2,6.094120553E-2
1.265881742E1,-6.911424890E-3,-5.836067570E-2,-1.676045895E-2,6.111177666E-2
1.266887042E1,-3.915790387E-3,-3.684604671E-2,3.749819398E-3,3.724279417E-2
1.267892342E1,8.157867399E-3,-2.191136258E-2,1.019169688E-2,2.550547580E-2
1.268897642E1,7.656989425E-3,-1.379690733E-2,-7.314866781E-4,1.579617712E-2
1.269902942E1,1.382559580E-4,2.554124096E-2,-1.270132184E-2,2.852538661E-2
1.270908321E1,8.603287046E-4,4.500664014E-2,1.095183492E-2,4.632796683E-2
1.271913621E1,-2.063523289E-2,5.754087780E-2,2.008577049E-2,6.434441413E-2
1.272918921E1,-4.112048012E-2,5.508279970E-2,2.921502829E-2,7.468953465E-2
1.273924221E1,-2.333560955E-2,6.242116498E-2,3.819401264E-2,7.680973319E-2
1.274929521E1,-2.519845251E-2,3.268812820E-2,4.822023332E-2,6.347177826E-2
1.275934821E1,-1.846314987E-2,1.673241058E-2,3.220003188E-2,4.071490538E-2
1.276940121E1,-4.266793775E-3,-8.944668509E-3,1.578748226E-5,9.910240819E-3
1.277945421E1,2.757535710E-2,-2.932840945E-2,-4.324600697E-3,4.048775236E-2
1.278950721E1,3.010453597E-2,-4.202510834E-2,-1.195931017E-2,5.306051184E-2
1.279956121E1,2.184005624E-2,-5.485196259E-2,-2.243576646E-2,6.315923901E-2
1.280961421E1,2.341415867E-2,-4.358501757E-2,-2.647560775E-2,5.611447575E-2
1.281966721E1,1.002417758E-2,-2.683945075E-2,-2.422559917E-2,3.751959365E-2
1.282972021E1,-9.142515103E-3,-2.762308728E-2,-5.361896753E-3,2.958666034E-2
1.283977321E1,-1.768667675E-3,-5.612833668E-3,-5.806285143E-3,8.267105557E-3
1.284982621E1,-2.462292661E-2,1.534040781E-2,1.350355983E-2,3.199941803E-2
1.285987921E1,-1.912666609E-2,2.595635673E-2,1.470165431E-2,3.543586390E-2
1.286993221E1,-2.374888664E-2,3.439061813E-2,2.054068387E-2,4.656870114E-2
1.287998521E1,-2.729665733E-2,2.214832099E-2,1.245924711E-2,3.729461707E-2
1.289003821E1,-1.440959960E-2,1.716051813E-2,-1.607984304E-3,2.246565282E-2
1.290009121E1,-3.617884743E-3,5.649524946E-3,9.618085027E-3,1.172662704E-2
1.291014421E1,-2.245080248E-2,2.085996011E-2,1.485835969E-2,3.405799937E-2
1.292019721E1,-5.977806133E-3,2.047696749E-2,2.435365319E-3,2.147024378E-2
1.293025021E1,-1.017040936E-2,3.005779479E-3,1.501097202E-2,1.837936936E-2
1.294030321E1,-1.537350168E-2,6.919576731E-3,1.081968784E-2,2.003224254E-2
1.295035621E1,-4.763346295E-3,-1.098706439E-2,8.874903917E-3,1.490533366E-2
1.296040921E1,5.241208281E-3,-4.170965105E-3,1.217156410E-2,1.389295458E-2
1.297046221E1,1.308624793E-2,-3.865497423E-2,9.777714014E-3,4.196499266E-2
1.298051521E1,-4.234349151E-5,-2.585615007E-2,-1.791352987E-2,3.145531500E-2
1.299056821E1,9.021431487E-3,-1.919597045E-2,-2.329881549E-2,3.150724219E-2
1.300062121E1,7.449707914E-3,-1.627764339E-2,-1.012269974E-2,2.056523455E-2
1.301067421E1,1.432843922E-3,-8.722711857E-3,-9.670125246E-3,1.310152915E-2
1.302072721E1,-2.394392554E-3,-4.768221639E-4,-9.667786360E-3,9.971287188E-3
1.303078021E1,-1.272970482E-2,9.940175246E-3,3.358640671E-3,1.649645222E-2
1.304083321E1,-3.047420562E-2,1.556203555E-2,2.236969292E-2,4.088101418E-2
1.305088621E1,-3.117638541E-2,1.472487872E-2,2.117159843E-2,4.046017352E-2
1.306093921E1,-1.170068166E-2,3.906488232E-3,2.057342827E-2,2.398817526E-2
1.307099221E1,-2.137784755E-2,7.774421386E-4,2.805727959E-2,3.528211615E-2
1.308104521E1,-4.190568695E-3,-8.529662378E-3,1.249023736E-2,1.569464990E-2
1.309109921E1,6.150195070E-3,9.073764067E-3,8.150433898E-3,1.365970960E-2
1.310115221E1,2.711440921E-2,-3.181853760E-3,2.042666316E-2,3.409639201E-2
1.311120521E1,9.167110525E-3,2.964848969E-3,8.453904390E-3,1.281775114E-2
1.312125821E1,1.152864447E-2,4.369057808E-3,-8.311817050E-3,1.486891429E-2
1.313131121E1,1.067211417E-2,-1.245639659E-3,-2.173410058E-3,1.096217817E-2
1.314136421E1,1.301204768E-2,-9.028009605E-3,-1.728963196E-2,2.344674211E-2
1.315141721E1,1.177332989E-2,-1.614785347E-2,1.699025452E-2,2.623038728E-2
1.316147021E1,8.047480076E-3,-1.703790933E-2,1.968932927E-2,2.725292602E-2
1.317152321E1,-7.538230419E-3,-1.337499417E-2,1.999279976E-2,2.520768592E-2
1.318157621E1,-1.795607293E-2,-2.621723391E-2,-2.610781789E-3,3.188385314E-2
1.319162921E1,-8.569462845E-4,-1.929471530E-2,8.314740658E-4,1.933162550E-2
1.320168221E1,3.274684304E-3,-2.887227181E-3,2.268661201E-2,2.310285702E-2
1.321173521E1,-9.607914069E-3,9.375114944E-3,2.643175364E-2,2.964527607E-2
1.322178821E1,-3.214075801E-2,8.606005087E-4,9.216966033E-3,3.344729319E-2
1.323184121E1,-1.206875132E-2,1.804286297E-2,2.687614202E-2,3.454745538E-2
1.324189421E1,-2.288379337E-2,1.582285792E-2,3.061543643E-2,4.136829438E-2
1.325194721E1,-2.531425251E-2,2.003292628E-2,2.327776551E-2,3.979929500E-2
1.326200021E1,2.401395866E-4,2.090807173E-2,2.521962583E-2,3.276026034E-2
1.327205321E1,1.248625280E-2,1.537477847E-2,2.491790950E-2,3.183068545E-2
1.328210621E1,1.275737745E-2,-5.284201875E-3,1.533549249E-2,2.063615272E-2
1.329215921E1,1.316967354E-2,-1.708941964E-2,1.174003959E-2,2.456251401E-2
1.330221221E1,1.190779872E-2,-8.034275305E-3,3.206613064E-3,1.471827494E-2
1.331226521E1,1.515425051E-2,-2.917340342E-2,-2.269128978E-2,3.994538030E-2
1.332231821E1,1.444713141E-2,-8.084013183E-3,-1.969985425E-2,2.573237519E-2
1.333237121E1,8.595288809E-3,-3.970624879E-3,-1.655756056E-2,1.907348063E-2
1.334242421E1,-1.428890713E-2,-2.061647840E-2,2.453491688E-3,2.520380269E-2
1.335247821E1,-2.560715690E-2,-1.986569591E-2,-2.184519768E-3,3.248298763E-2
1.336253121E1,-3.095541091E-2,1.179858483E-3,1.158801198E-2,3.307433374E-2
1.337258421E1,-3.293968182E-2,-5.028970912E-3,-6.074087620E-3,3.387045507E-2
1.338263721E1,-2.993166623E-2,6.303188838E-3,-5.624436736E-3,3.110095049E-2
1.339269021E1,-3.071062956E-2,8.016569205E-3,1.443736017E-2,3.486897645E-2
1.340274321E1,-2.153294494E-2,1.021095615E-2,2.521611750E-2,3.469558942E-2
1.341279621E1,-1.504739378E-2,1.469703136E-2,1.563603938E-2,2.620901596E-2
1.342284921E1,9.130285915E-4,2.048232134E-2,2.431623101E-2,3.180626038E-2
1.343290221E1,8.801808583E-3,1.055400498E-2,9.495293498E-3,1.670387542E-2
1.344295521E1,5.605251702E-3,2.062099172E-2,1.413272023E-2,2.561987368E-2
1.345300821E1,1.109115168E-2,1.798450045E-2,1.981738329E-2,2.896868279E-2
1.346306121E1,8.750703118E-3,-2.897441536E-3,3.268944383E-2,3.396424164E-2
1.347311421E1,2.254889866E-2,-1.027609779E-2,1.038407028E-2,2.686782336E-2
1.348316721E1,9.935989691E-3,-3.631248828E-3,1.307788253E-2,1.682084631E-2
1.349322021E1,1.697083651E-2,-2.075180490E-2,1.487473190E-2,3.065785947E-2
1.350327321E1,6.918982873E-3,-6.311009489E-3,6.344228983E-3,1.131151653E-2
1.351332621E1,-1.111349915E-3,-2.115526278E-2,-9.670125246E-3,2.328715449E-2
1.352337921E1,-1.944895845E-2,-5.569399819E-3,-1.056591868E-2,2.282364644E-2
1.353343221E1,-2.816903221E-2,-4.792834762E-3,1.682887137E-2,3.316137139E-2
1.354348521E1,-2.556230693E-2,5.478676613E-3,3.809460998E-3,2.641892174E-2
1.355353821E1,-3.957916321E-2,1.147826705E-2,1.399063289E-2,4.352009402E-2
1.356359121E1,-4.347242212E-2,-3.852310125E-3,2.881332457E-2,5.229626613E-2
1.357364421E1,-1.804752476E-2,9.142304398E-3,1.384445250E-2,2.451456189E-2
1.358369721E1,-1.467430488E-2,1.127458295E-2,2.522254944E-2,3.128303765E-2
1.359375121E1,1.591112346E-2,8.980354797E-3,2.058570743E-2,2.752420703E-2
1.360380421E1,-2.958825024E-3,8.694151863E-3,1.475018620E-2,1.737558388E-2
1.361385721E1,1.069886632E-2,-8.093441818E-3,2.193758368E-2,2.571433684E-2
1.362391021E1,2.716624843E-2,-1.135452535E-2,2.133882880E-2,3.636311200E-2
1.363396321E1,2.697055172E-2,-2.087492533E-3,2.013898015E-2,3.372457274E-2
1.364401621E1,6.136701935E-3,-7.127481792E-3,2.208376408E-2,2.400318194E-2
1.365406921E1,5.516940473E-3,2.615587469E-3,1.549746037E-2,1.665680665E-2
1.366412221E1,7.060501480E-3,-4.315409604E-3,1.205286562E-2,1.462002089E-2
1.367417521E1,-4.947507892E-3,1.078308793E-2,1.100329041E-2,1.618101417E-2
1.368422821E1,-1.978246445E-2,-5.275394507E-3,1.983550966E-2,2.850654539E-2
1.369428121E1,-1.341467301E-2,-5.216885805E-3,1.639149964E-2,2.181400032E-2
1.370433421E1,-2.785507784E-2,5.435882304E-3,7.250547409E-5,2.838061724E-2
1.371438754E1,-1.319656844E-2,3.586608991E-3,3.065110445E-3,1.401456688E-2
1.372444054E1,-2.718104691E-2,2.470302433E-3,7.554017901E-3,2.831916121E-2
1.373449354E1,-1.437086979E-2,-3.366296869E-3,1.773285091E-2,2.307179782E-2
1.374454654E1,-2.224350955E-2,4.805680364E-6,8.603008389E-3,2.384922417E-2
1.375459954E1,-7.086341719E-3,-2.239686420E-2,-2.268719673E-4,2.349228035E-2
1.376465254E1,2.690243394E-3,-1.510021515E-2,-2.920684218E-3,1.561359355E-2
1.377470554E1,1.068893291E-2,-1.224914934E-2,-6.361185908E-3,1.745736614E-2
1.378475854E1,2.295536694E-2,-3.859089240E-3,1.819010317E-2,2.954185666E-2
1.379481154E1,3.322271675E-2,-4.367267098E-3,7.263996005E-3,3.428684249E-2
1.380486454E1,1.977913656E-2,1.231222618E-3,6.367033124E-3,2.081512102E-2
1.381491754E1,6.130426456E-3,6.696523726E-4,1.594652653E-2,1.709743464E-2
1.382497054E1,2.117224540E-3,1.136808358E-2,8.313571215E-3,1.424188999E-2
1.383502354E1,4.974870963E-4,1.278201342E-2,3.660356998E-2,3.877433037E-2
1.384507654E1,-8.669647233E-3,9.581759200E-4,3.256197453E-2,3.370998471E-2
1.385512954E1,-2.463350185E-2,2.769431368E-2,2.402854800E-2,4.417188633E-2
1.386518354E1,-2.862796555E-2,1.059632421E-2,2.597274721E-2,4.008024570E-2
1.387523654E1,-1.239327978E-2,8.378475308E-3,3.944180846E-2,4.218350966E-2
1.388528954E1,-3.132909596E-2,8.484383002E-3,2.446884334E-2,4.064752518E-2
1.389534254E1,-2.565333620E-2,-3.641956542E-3,2.013196349E-3,2.598866032E-2
1.390539554E1,-9.049672853E-3,4.702623188E-3,-3.674390316E-3,1.084031309E-2
1.391544854E1,-1.015773849E-3,-9.208706841E-3,-8.165636659E-3,1.234948178E-2
1.392550154E1,-1.485815184E-2,-1.678635115E-2,-2.029100776E-2,3.023691877E-2
1.393555454E1,6.653471888E-3,-3.437846689E-2,-2.474541664E-3,3.510371818E-2
1.394560754E1,1.248603524E-3,-3.969859259E-2,1.563896298E-2,4.268623230E-2
1.395566054E1,5.055386166E-3,-2.636295749E-2,3.666204214E-3,2.709249915E-2
1.396571354E1,-4.399626355E-3,-2.169311525E-2,1.085594058E-2,2.465358812E-2
1.397576654E1,-1.034971103E-2,-1.110494060E-2,1.276447177E-3,1.523369757E-2
1.398581954E1,-2.139323303E-2,-8.358503412E-3,6.065316796E-3,2.375548498E-2
1.399587254E1,-9.349981053E-3,2.428509459E-2,-1.174530208E-2,2.855065824E-2
1.400592554E1,-1.572973987E-2,5.455269478E-3,-6.354753971E-3,1.782042590E-2
1.401597854E1,-1.032443439E-2,8.622084931E-4,8.316494823E-3,1.328538426E-2
1.402603154E1,-2.733785508E-2,7.339077909E-3,2.059272408E-2,3.500400934E-2
1.403608454E1,-1.915559839E-2,8.706979193E-3,2.822684884E-2,3.520658222E-2
1.404613754E1,-1.468925639E-2,5.722286236E-3,1.475427926E-2,2.159184034E-2
1.405619054E1,-6.578579562E-3,3.496159874E-3,3.061894476E-2,3.151222971E-2
1.406624354E1,-3.263917490E-3,1.379809504E-2,2.687438786E-2,3.038541274E-2
1.407629654E1,-6.896682940E-3,7.854637876E-3,1.055773258E-2,1.485682634E-2
1.408634954E1,-4.407334230E-3,1.466737501E-4,3.069788218E-3,5.373053871E-3
1.409640254E1,5.202991816E-3,-8.602880482E-3,-7.484436035E-5,1.005416720E-2
1.410645554E1,5.625609605E-3,-1.556431962E-2,5.163091421E-3,1.733646566E-2
1.411650954E1,2.179328080E-2,2.965707779E-3,7.106705904E-3,2.311380063E-2
1.412656254E1,1.461247057E-2,-1.319550293E-2,-4.119948149E-3,2.011515763E-2
1.413661554E1,7.162870009E-3,-9.724285081E-3,1.429117978E-2,1.871112628E-2
1.414666854E1,-1.443646139E-2,8.862295859E-3,1.420288682E-3,1.699908601E-2
1.415672154E1,-1.708283353E-2,1.222798973E-2,-1.724343896E-3,2.107890643E-2
1.416677454E1,-2.841401684E-2,1.294240985E-2,1.114713192E-2,3.315299196E-2
1.417682754E1,-3.007256129E-2,1.691745669E-3,4.710516930E-3,3.048622502E-2
1.418688054E1,-1.922003768E-2,-2.754349206E-3,8.599500060E-3,2.123552893E-2
1.419693354E1,-3.294590819E-2,-5.836581029E-3,2.925303519E-2,4.444365660E-2
1.420698654E1,-5.859334921E-3,-5.541150458E-4,2.985120535E-2,3.042586580E-2
1.421703954E1,-4.882459331E-3,8.285760395E-3,1.053902149E-2,1.426755790E-2
1.422709254E1,-7.071052164E-3,-4.854851793E-3,-1.475895703E-2,1.707033032E-2
1.423714554E1,1.119800612E-2,-7.423551902E-3,-1.715105295E-2,2.178676390E-2
1.424719854E1,4.545088692E-3,-1.351625925E-2,-3.375597596E-3,1.465406955E-2
1.425725154E1,-1.727649800E-3,-2.341391427E-2,-1.833979189E-2,2.979167874E-2
1.426730454E1,9.552428332E-3,-2.560627297E-2,4.414647818E-3,2.768427744E-2
1.427735754E1,1.085553173E-2,-2.827408338E-2,1.908355772E-2,3.579732582E-2
1.428741054E1,-1.429990549E-3,-3.214163281E-2,3.075927794E-2,4.451137621E-2
1.429746354E1,1.511218025E-2,-7.730676904E-3,4.363192320E-2,4.681758301E-2
1.430751654E1,1.325410185E-2,1.828780649E-2,-4.868976474E-3,2.310458859E-2
1.431756954E1,-2.790273608E-3,2.045547897E-2,2.466940284E-3,2.079177821E-2
1.432762254E1,-4.265725973E-3,2.405047506E-2,-9.657846093E-3,2.626586682E-2
1.433767554E1,-3.277783785E-3,1.691707296E-2,8.306554556E-3,1.912929880E-2
1.434772854E1,4.011658172E-3,1.889233550E-2,2.866363585E-2,3.456324293E-2
1.435778154E1,-5.601206117E-4,1.636160575E-2,3.764203548E-2,4.104800498E-2
1.436783554E1,-4.121337148E-3,1.347099815E-2,3.688949883E-2,3.948782515E-2
1.437788854E1,-1.238495664E-2,1.288653240E-3,2.147039115E-2,2.481986048E-2
1.438794154E1,-1.976634121E-2,1.279226432E-2,1.068812549E-2,2.585703575E-2
1.439799454E1,-1.890293586E-2,4.367358461E-3,1.368014574E-2,2.373902255E-2
1.440804754E1,-1.361676398E-2,-1.391178684E-2,1.703293920E-3,1.954111779E-2
1.441810054E1,-2.734511749E-4,2.237966973E-3,-2.374378860E-2,2.385059263E-2
1.442815354E1,7.739703543E-3,-1.987771925E-2,-8.174407482E-3,2.284398545E-2
1.443820654E1,8.889436875E-3,-3.480726879E-2,1.428065479E-2,3.865883017E-2
1.444825954E1,5.712055321E-3,-2.435760006E-2,1.173653126E-2,2.763451506E-2
1.445831254E1,9.084443230E-3,-6.947625093E-3,1.233470142E-2,1.682086390E-2
1.446836554E1,1.154447306E-2,-1.337890450E-2,1.203532398E-2,2.138034067E-2
1.447841854E1,3.610356167E-3,-5.764386188E-3,-7.725926042E-3,1.029333537E-2
1.448847154E1,2.541314697E-3,5.534663703E-3,7.541154027E-3,9.693285653E-3
1.449852454E1,-3.000513787E-2,2.289058847E-2,1.232885420E-2,3.970249344E-2
1.450857754E1,-3.549046912E-3,1.408767840E-2,2.594994307E-2,2.973983796E-2
1.451863054E1,4.465814523E-4,2.728930263E-2,1.906426191E-2,3.329191426E-2
1.452868354E1,6.743833639E-3,8.999376521E-3,6.789786816E-3,1.313656252E-2
1.453873654E1,8.061024032E-3,1.699361667E-2,1.517177045E-2,2.416496916E-2
1.454878954E1,-1.588485211E-3,1.039492417E-2,2.385371625E-2,2.606870754E-2
1.455884254E1,-1.013161332E-2,7.562715635E-3,1.247971237E-2,1.776478193E-2
1.456889554E1,-3.039089193E-2,-7.911319323E-3,1.592079878E-2,3.520890682E-2
1.457894854E1,-1.960399189E-2,-6.953801215E-3,2.747606635E-3,2.098144875E-2
1.458900154E1,-1.114410639E-3,-1.193411233E-2,3.945701122E-3,1.261877591E-2
1.459905454E1,-3.711809070E-3,-7.822843641E-3,-5.483518839E-3,1.024906767E-2
1.460910754E1,5.876846875E-3,-1.964236882E-2,8.437532187E-3,2.217097046E-2
1.461916154E1,3.083311046E-3,-8.371239379E-3,5.744889379E-3,1.061075915E-2
1.462921454E1,-1.162975076E-3,-4.166214243E-3,-4.280161858E-3,6.085198244E-3
1.463926754E1,1.468380774E-2,-8.634254448E-3,4.102406502E-3,1.752125278E-2
1.464932054E1,9.563061243E-3,-4.086162206E-3,7.546416521E-3,1.284901803E-2
1.465937354E1,-4.532063791E-3,-5.759068877E-3,1.922272146E-2,2.057229926E-2
1.466942654E1,-1.163805250E-2,-5.301049165E-4,7.397312522E-3,1.380019963E-2
1.467947954E1,-2.728721670E-3,2.135200331E-2,1.922272146E-2,2.885943498E-2
1.468953254E1,-2.474809129E-2,1.026299637E-2,4.017914236E-2,4.829244866E-2
1.469958554E1,-1.176670723E-2,2.613690779E-2,3.089610279E-2,4.214454312E-2
1.470963842E1,-1.516040835E-2,2.217081450E-2,3.104462206E-2,4.105059751E-2
1.471969142E1,-2.125727385E-2,1.703319501E-2,1.068754077E-2,2.926132177E-2
1.472974442E1,-9.480714859E-3,1.568124566E-2,-7.576822042E-3,1.982911123E-2
1.473979742E1,-1.474448631E-2,6.838629339E-3,2.899049520E-3,1.650973095E-2
1.474985042E1,-1.206979971E-2,-3.898923397E-3,1.397543013E-2,1.887311093E-2
1.475990342E1,-3.815059821E-3,-2.691188313E-2,9.633872509E-3,2.883774670E-2
1.476995642E1,-1.232682823E-2,-2.669562751E-2,-2.444136143E-4,2.940521996E-2
1.478000942E1,-8.329321581E-3,-2.769372895E-2,-2.958164871E-2,4.136900001E-2
1.479006242E1,-1.014715640E-2,-1.348015269E-2,-1.221541822E-2,2.083016423E-2
1.480011542E1,3.250078675E-4,-7.410706300E-3,4.403538108E-3,8.626432974E-3
1.481016842E1,4.630262182E-3,-1.707739631E-2,1.054486871E-2,2.059784087E-2
1.482022142E1,-8.702027332E-4,-7.339114454E-3,1.593307793E-2,1.756367917E-2
1.483027442E1,3.196831825E-3,-4.013693277E-3,-2.176918387E-3,5.573907167E-3
1.484032742E1,-4.096860783E-3,-5.237880964E-3,2.566518366E-2,2.651266335E-2
1.485038142E1,-8.102607785E-3,8.742848206E-3,2.521553278E-2,2.789108713E-2
1.486043442E1,-8.562597506E-3,2.568219541E-2,1.473673761E-2,3.082311912E-2
1.487048742E1,-1.214674998E-2,2.616477342E-2,2.266731620E-2,3.668713844E-2
1.488054042E1,-1.488059967E-2,3.103066184E-2,2.131894827E-2,4.048248727E-2
1.489059342E1,-5.662134718E-3,2.240358850E-2,5.598124266E-3,2.377644933E-2
1.490064642E1,-6.677486585E-3,5.804147255E-3,1.128629565E-2,1.434076086E-2
1.491069942E1,-1.463995249E-2,1.006689537E-3,1.667275071E-2,2.221085881E-2
1.492075242E1,-1.548472440E-2,4.416420255E-3,-1.740716100E-3,1.619603501E-2
1.493080542E1,-5.596383805E-3,-2.021665676E-2,3.200181127E-3,2.121965790E-2
1.494085842E1,2.097710885E-3,-1.892895369E-2,-9.971256852E-3,2.149724731E-2
1.495091142E1,1.872871396E-2,-2.375970399E-2,-4.878916740E-3,3.064460946E-2
1.496096442E1,1.408596877E-2,-1.911421906E-2,-1.400758982E-2,2.756774309E-2
1.497101742E1,6.301739026E-3,-1.272538679E-2,-7.869767547E-3,1.623516630E-2
1.498107042E1,-2.213693034E-3,-5.959865917E-3,6.050698757E-3,8.776753047E-3
1.499112342E1,-1.894031493E-3,3.335288353E-3,1.727969170E-2,1.770026126E-2
1.500117642E1,-5.992573779E-3,3.212496825E-3,5.905103087E-3,9.005627064E-3
1.501122942E1,-8.754177758E-3,1.930920543E-2,1.563603938E-2,2.634324904E-2
1.502128242E1,-1.567690479E-2,1.638980029E-2,8.751527667E-3,2.431008297E-2
1.503133542E1,-1.019760919E-2,2.694959767E-2,9.199424386E-3,3.024733801E-2
1.504138842E1,-5.695188046E-3,4.024748169E-3,1.129565120E-2,1.327499532E-2
1.505144142E1,-3.525371684E-3,1.282330938E-3,3.674331844E-2,3.693432100E-2
1.506149442E1,-1.591095616E-3,3.722867388E-3,2.117510676E-2,2.155867513E-2
1.507154742E1,-1.626408515E-2,-8.970469348E-3,1.413915217E-2,2.334320908E-2
1.508160142E1,-6.314658860E-3,3.659991547E-5,1.189089775E-2,1.346364384E-2
1.509165442E1,-1.675685526E-5,-1.840312455E-2,8.296614289E-3,2.018685420E-2
1.510170742E1,-4.598100783E-3,-1.148192156E-2,9.343850613E-3,1.550111602E-2
1.511176042E1,1.650683825E-2,-6.529658809E-3,-1.370821238E-2,2.242826876E-2
1.512181342E1,2.639995740E-4,-1.640734194E-2,-3.679068089E-3,1.681683999E-2
1.513186642E1,4.943354313E-3,-9.110199530E-3,-5.622097850E-3,1.179154237E-2
1.514191942E1,7.882647410E-3,-1.281545218E-3,2.610197067E-3,8.401881757E-3
1.515197242E1,-2.364196025E-3,-7.786061000E-3,2.670832694E-2,2.792036705E-2
1.516202542E1,-1.022007986E-2,1.735261744E-2,-4.576030970E-3,2.065195932E-2
1.517207842E1,-1.708796127E-2,5.076461267E-3,5.752490759E-3,1.873125808E-2
1.518213142E1,-1.214650987E-3,8.783906624E-3,2.521260917E-2,2.672654212E-2
1.519218442E1,-3.884151412E-2,1.139540104E-2,1.084132254E-2,4.190528199E-2
1.520223742E1,-3.035222494E-2,1.676531944E-2,4.255018830E-3,3.493477751E-2
1.521229042E1,-2.115788260E-2,1.365597116E-2,2.192004204E-2,3.338607176E-2
1.522234342E1,-2.253877795E-2,2.979850732E-3,3.524116874E-2,4.193824026E-2
1.523239642E1,-3.568621265E-2,-3.266985565E-3,1.488233328E-2,3.880287118E-2
1.524244942E1,-2.101669975E-2,-8.344250824E-3,1.772641897E-2,2.873245760E-2
1.525250242E1,-6.622793991E-3,-1.518973237E-2,1.997350395E-2,2.595246096E-2
1.526255542E1,-1.042800434E-2,-2.225965563E-2,5.154905319E-3,2.511590317E-2
1.527260842E1,-2.018605737E-3,-1.890934724E-3,1.054369926E-2,1.090045859E-2
1.528266142E1,9.726954015E-3,3.166851997E-3,9.197085500E-3,1.375605204E-2
1.529271542E1,1.788500814E-3,3.188194335E-3,5.168938637E-4,3.691950371E-3
1.530276842E1,8.992737304E-3,5.382965002E-3,1.907946467E-2,2.176859225E-2
1.531282142E1,9.858128076E-3,9.117380641E-3,2.012494683E-2,2.419344547E-2
1.532287442E1,-4.211879055E-3,2.483476941E-3,7.399651408E-3,8.869183945E-3
1.533292742E1,-7.229401502E-3,1.897604205E-3,4.256188273E-3,8.601179362E-3
1.534298042E1,-1.678944835E-2,3.740774486E-3,1.293930352E-2,2.152451033E-2
1.535303342E1,-1.711552883E-2,-3.658584561E-3,-4.425757527E-3,1.805308555E-2
1.536308642E1,-1.725786742E-2,-1.324960794E-3,7.999575734E-3,1.906784521E-2
1.537313942E1,-1.800222254E-2,-2.752743049E-2,1.219085991E-2,3.507786355E-2
1.538319242E1,-8.898980285E-3,-7.748401277E-3,2.310819626E-3,1.202370408E-2
1.539324542E1,-1.771127560E-2,-6.122217514E-3,1.997467339E-2,2.738901984E-2
1.540329842E1,-1.883992755E-2,-7.727771569E-3,3.959734440E-3,2.074465763E-2
1.541335142E1,-1.254801059E-3,-3.591597397E-3,9.498801827E-3,1.023236697E-2
1.542340442E1,3.248266481E-3,-7.751087341E-3,6.806743741E-3,1.081491334E-2
1.543345742E1,5.332212998E-3,-5.970518813E-3,2.181011438E-4,8.007943460E-3
1.544351042E1,3.988098860E-3,3.227297589E-3,1.324218929E-2,1.420126612E-2
1.545356342E1,-1.244613684E-3,8.234798256E-3,3.960319161E-3,9.221989666E-3
1.546361642E1,2.298746496E-2,1.229643870E-2,4.110007882E-3,2.639162964E-2
1.547366942E1,1.507854505E-2,-4.014643449E-3,1.937825739E-2,2.487964514E-2
1.548372242E1,-1.401791152E-3,-5.794956163E-4,2.237203181E-2,2.242339494E-2
1.549377642E1,-1.622067986E-2,-8.131101541E-4,3.329813898E-2,3.704777540E-2
1.550382942E1,-4.801128216E-3,-6.029155422E-3,1.293754935E-2,1.505927390E-2
1.551388242E1,-2.497522135E-2,3.564791568E-4,1.533139944E-2,2.930768786E-2
1.552393542E1,-1.330992563E-2,2.281071916E-3,1.158918142E-2,1.779512673E-2
1.553398842E1,-1.256251671E-2,3.383966424E-3,1.817723930E-2,2.235352508E-2
1.554404142E1,-1.675344800E-2,-2.311751526E-3,-4.872484803E-3,1.760009441E-2
1.555409442E1,-1.817015640E-2,5.322866589E-3,2.911328673E-3,1.915628688E-2
1.556414742E1,-5.331987446E-3,-7.732942700E-3,-6.668164730E-3,1.151924103E-2
1.557420042E1,-5.338459354E-3,4.122725576E-3,-6.812006235E-4,6.779384098E-3
1.558425342E1,-5.717258430E-3,-2.331997510E-3,2.326957941E-2,2.407485373E-2
1.559430642E1,-1.740240100E-2,-2.285658326E-3,2.165223956E-3,1.768490852E-2
1.560435942E1,7.291421959E-3,-2.619698793E-3,1.009404838E-2,1.272467951E-2
1.561441242E1,8.781751605E-3,6.363634430E-3,7.100273967E-3,1.296259599E-2
1.562446542E1,2.292133518E-3,3.410023078E-4,1.263934135E-2,1.285002368E-2
1.563451842E1,-1.470617220E-2,-7.474952582E-3,8.595991731E-3,1.860208297E-2
1.564457142E1,-2.491141590E-2,8.619362321E-3,6.490409374E-5,2.636050571E-2
1.565462442E1,-2.482806852E-3,5.356012993E-3,2.341809869E-2,2.415074639E-2
1.566467742E1,-4.818431177E-3,-1.700887425E-2,1.952736139E-2,2.634078445E-2
1.567473042E1,-9.622009057E-3,-1.188934458E-2,1.413798273E-2,2.082839717E-2
1.568478342E1,1.898156664E-3,1.229457490E-2,1.069397271E-2,1.640489631E-2
1.569483642E1,-8.573097369E-3,-1.023218885E-2,1.772817314E-2,2.219197625E-2
1.570489042E1,-1.876197799E-2,-3.537437562E-3,7.100858688E-3,2.037025962E-2
1.571494292E1,-1.335682669E-2,-9.758491293E-3,2.072370172E-2,2.651612310E-2
1.572499592E1,-2.798161753E-2,1.199940015E-3,3.359225392E-3,2.820806925E-2
1.573504892E1,-1.524924834E-2,3.454863913E-3,3.957980275E-3,1.612889542E-2
1.574510192E1,2.037261153E-3,-1.377512645E-3,6.203895807E-3,6.673552074E-3
1.575515492E1,5.836313222E-3,-3.325055726E-3,6.206234694E-3,9.145266353E-3
1.576520792E1,-2.374341573E-3,-5.467804447E-3,9.650244713E-3,1.134290996E-2
1.577526092E1,-2.371330770E-2,-3.193986733E-3,6.706756353E-4,2.393684021E-2
1.578531392E1,-8.520257155E-3,1.022171868E-2,3.814723492E-3,1.384306433E-2
1.579536692E1,3.845549567E-3,-1.567072067E-3,2.170486450E-3,4.685613916E-3
1.580541992E1,1.137451323E-2,-5.963282883E-3,2.252873719E-2,2.593230212E-2
1.581547292E1,-7.743940491E-3,3.787771482E-3,2.312749207E-2,2.468191072E-2
1.582552592E1,-5.763083698E-3,3.153056223E-3,1.085067809E-2,1.268432545E-2
1.583557892E1,-1.517488135E-2,1.078983050E-2,9.503479600E-3,2.090487003E-2
1.584563192E1,-1.170169236E-2,2.706529945E-3,2.147857726E-2,2.460862022E-2
1.585568492E1,-2.313503977E-3,-3.928196020E-3,9.354960322E-3,1.040664726E-2
1.586573792E1,-2.205688287E-2,4.313819893E-3,2.118270814E-2,3.088401283E-2
1.587579092E1,-4.001718762E-3,1.269298956E-2,2.058395326E-2,2.451172921E-2
1.588584492E1,8.481714639E-3,1.042819848E-2,1.571146846E-3,1.353348844E-2
1.589589792E1,-1.464320528E-3,-4.601155724E-3,5.314534307E-3,7.180469588E-3
1.590595092E1,-6.238496592E-4,7.388212793E-3,5.316288471E-3,9.123475203E-3
1.591600392E1,-2.678037902E-3,5.810999461E-3,-8.215337992E-4,6.450931678E-3
1.592605692E1,-2.802578456E-2,-4.763836227E-3,1.115473330E-2,3.053795689E-2
1.593610992E1,-2.980099124E-3,-2.414395742E-2,6.962279677E-3,2.530385364E-2
1.594616292E1,-7.452035808E-4,-7.488602176E-3,-3.364487886E-3,8.243437976E-3
1.595621592E1,-2.174386355E-3,-1.174102630E-2,-3.812384605E-3,1.253450961E-2
1.596626892E1,-8.161922763E-3,-9.878834300E-3,-8.154526949E-3,1.518896508E-2
1.597632192E1,-2.868241432E-3,-4.018005598E-3,3.376182318E-3,5.980784643E-3
1.598637492E1,-8.361576627E-3,4.954071734E-3,5.623852015E-3,1.122882460E-2
1.599642792E1,6.025036104E-4,1.006395349E-2,1.790066600E-2,2.054458599E-2
1.600648092E1,-6.719635074E-3,2.693514409E-2,1.116291940E-2,2.992100018E-2
1.601653392E1,-8.157123935E-3,1.279438393E-2,2.463315010E-2,2.893141917E-2
1.602658692E1,-2.989152601E-3,6.202616729E-3,4.573692083E-2,4.625228010E-2
1.603663992E1,-3.584863392E-3,1.735680185E-2,3.885007024E-2,4.270173033E-2
1.604669292E1,-7.216256116E-3,-4.070100635E-3,1.220606267E-2,1.475222144E-2
1.605674592E1,-1.895303348E-2,-8.172159959E-3,8.913495541E-3,2.248226144E-2
1.606679992E1,-8.905479602E-3,-1.099808274E-2,6.815514565E-3,1.570721585E-2
1.607685292E1,2.821621308E-3,-1.247540005E-2,3.222400546E-3,1.319018644E-2
1.608690592E1,-4.895336910E-3,-1.756836142E-2,1.040745914E-2,2.099825832E-2
